             eV             nm  Absorbance(f)     XX(length)     YY(length)     ZZ(length)      R(length)   XX(velocity)   YY(velocity)   ZZ(velocity)    R(velocity)
         0.3290      3767.9900         0.0000        -0.0061         0.0022         1.7386         0.5782        -3.5010        -3.8421         0.0021        -2.4470
         0.5487      2259.7800         0.0024        92.3959       -31.5680         0.0012        20.2764       -28.9552        57.0973        33.5744        20.5722
         0.5700      2175.2000         0.0006       206.9299        14.1099        -0.0129        73.6756        62.9498        45.5241       103.0178        70.4973
         0.7223      1716.4600         0.0001        -4.0212        -6.1095         0.4976        -3.2110        -1.8081        -1.2963        -6.1083        -3.0709
         0.7269      1705.7500         0.0003        -0.0299        -0.1842        47.3543        15.7134        34.7670        44.0431        -0.0897        26.2401
         0.7640      1622.8200         0.0000         0.1045        -0.0030        22.1306         7.4107         3.5614         3.7756         0.0594         2.4655
         0.8381      1479.4000         0.0004        35.1225       -19.0107        -0.0064         5.3684        -6.5996        20.8667         4.5512         6.2728
         0.8454      1466.5700         0.0030       420.1631        36.7645        -0.0049       152.3076        30.3154       231.9927       286.5280       182.9454
         0.9547      1298.6700         0.0017        -0.0204         0.0031      -250.4664       -83.4946      -163.5637      -157.4117        -0.0035      -106.9930
         1.0170      1219.0600         0.0009         0.0284         0.0006       227.5631        75.8640       139.5955       149.2761        -0.0001        96.2905
         1.0349      1197.9800         0.0003       -78.3068         5.9315         0.0248       -24.1168        -5.3142       -54.6792       -58.3830       -39.4588
         1.0717      1156.9000         0.0000        -0.0041         0.0003         2.5899         0.8620       -33.0433       -29.6378         0.0018       -20.8931
         1.1157      1111.2600         0.0000        19.8823       -11.8678         0.0283         2.6809        -1.4676        21.3190        14.6114        11.4876
         1.1460      1081.9300         0.0004        -0.0587        -0.0142       -67.6110       -22.5613       -60.0421       -27.2598        -0.0345       -29.1121
         1.1542      1074.2000         0.0002       -21.9785         2.0136        -0.1978        -6.7209         4.1097       -15.0895        -6.8109        -5.9302
         1.1948      1037.7100         0.0043       603.3558        -5.0423         0.0076       199.4403        -7.6559       404.7028       391.7690       262.9387
         1.2241      1012.8400         0.0005         0.0319        -0.0027      -404.4317      -134.8008      -200.2631      -192.7887         0.0132      -131.0129
         1.3450       921.7900         0.0025      -144.5954        29.1058        -0.0094       -38.4997        25.4053       -89.9210       -65.4191       -43.3116
         1.4163       875.4000         0.0011       -90.8981        35.3653         0.0095       -18.5078        19.8032       -44.4702       -36.2661       -20.3111
         1.4194       873.5100         0.0026      -272.7967         0.8789         0.0029       -90.6383        -0.3264      -147.0224      -152.3797       -99.9095
         1.4553       851.9700         0.0015       -83.4591        75.6863        -0.0928        -2.6219        36.5305       -51.5055       -20.1267       -11.7006
         1.4797       837.9300         0.0004        18.6791        35.4365         0.0349        18.0502        23.5983         6.1658        37.8063        22.5235
         1.4905       831.8000         0.0000         0.0109         0.2224       -25.1270        -8.2979       -15.4170       -10.9063         0.1453        -8.7260
         1.5702       789.5900         0.0047       -33.8271        -0.9846        -4.5698       -13.1271         0.0551       -21.2329       -22.0322       -14.4033
         1.5743       787.5700         0.0353      -254.1883        -9.1001        -0.9177       -88.0687         7.8930      -148.5160      -167.8394      -102.8208
         1.6392       756.3600         0.0001        -0.4740         0.5244        71.5440        23.8648        83.3003       102.3543        -0.4323        61.7408
         1.6443       754.0300         0.0028       -22.9443        -1.8392         1.9337        -7.6166       -13.8671        -9.8008       -22.9084       -15.5255
         1.6786       738.6000         0.0031         0.0096         0.0245      -387.5393      -129.1684      -211.7959      -224.0540         0.0141      -145.2786
         1.7042       727.5100         0.0000         0.0840        -0.0102         1.5690         0.5476        -4.0186        -3.3517         0.0378        -2.4442
         1.7420       711.7500         0.0108       103.2823        -5.8933        -0.1923        32.3989        -5.4206        49.6364        64.0338        36.0832
         1.7634       703.1100         0.0007         0.1147         0.0463       -43.2977       -14.3789       -29.6672       -17.4247         0.0886       -15.6678
         1.7950       690.7400         0.0011        -0.3086        -6.5748        -0.1096        -2.3310       -15.2950         4.2979         2.8201        -2.7257
         1.8025       687.8300         0.0072        -8.5657        72.9373         0.0138        21.4618        56.2577       -23.3764        49.5077        27.4630
         1.8421       673.0600         0.0000         0.0225        -0.0132       -17.3810        -5.7906       -10.1416        -7.6592         0.0127        -5.9294
         1.9214       645.2900         0.0433       -81.6772        82.9942         0.1977         0.5049        39.5874       -67.7614        19.8720        -2.7674
         1.9339       641.0900         0.0011         0.0721        -0.0226       115.0061        38.3519        87.5482        46.4784         0.0523        44.6930
         1.9941       621.7400         0.0000        -0.0508         0.0205         1.4041         0.4579         1.9582        -0.3527        -0.0099         0.5319
         2.0216       613.3100         0.0010        60.0027       148.5618        -0.0438        69.5069        89.7720        34.6356       111.5288        78.6454
         2.0476       605.5200         0.0043        -0.1323         0.1157       -11.7791        -3.9319         0.9412       -13.6920         0.0132        -4.2459
         2.0818       595.5500         0.0026        -0.2239         0.7299       -64.0607       -21.1849       -58.5665       -25.2052         0.2521       -27.8399
         2.0926       592.4800         0.0145      -108.2203        57.4170        -0.5685       -17.1239        23.2432       -49.4947       -26.0885       -17.4467
         2.1251       583.4300         0.0000         0.0332        -0.0002        -0.0403        -0.0024         2.5458        -1.5244         0.0149         0.3454
         2.1404       579.2600         0.0120      -102.0498        56.8139        -0.0106       -15.0822        37.2150       -62.0661       -27.9153       -17.5888
         2.2206       558.3300         0.0027         0.7055        -0.1738       178.7742        59.7686       107.0396        94.9846         0.3224        67.4489
         2.2259       557.0200         0.0280       179.7267      -124.7516         0.3607        18.4452      -103.9407       116.1926        29.6579        13.9699
         2.2367       554.3100         0.0019        24.8042        31.8482         0.0148        18.8891        35.0387         4.4913        38.5323        26.0208
         2.2731       545.4300         0.0002         0.0197         0.0301       -71.8004       -23.9169       -40.8619       -28.0397         0.0305       -22.9570
         2.2845       542.7100         0.0000         0.0074        -0.2303       -14.6364        -4.9531       -27.2148       -17.2559        -0.1212       -14.8639
         2.3082       537.1500         0.0109       117.2506      -174.3349         0.0454       -19.0130       -92.2636        53.6539       -43.1016       -27.2371
         2.3664       523.9400         0.0001         0.0038         0.0021        24.8989         8.3016        -2.1437        -1.0193         0.0022        -1.0536
         2.3926       518.2000         0.0003        16.8247        -3.6793        -0.0007         4.3816       -14.0741        12.0595        -4.1871        -2.0672
         2.4080       514.8900         0.0002         2.1583        10.4943         0.3226         4.3251         4.1042         0.8566         7.7340         4.2316
         2.4293       510.3700         0.0000         0.0096         0.0064         0.8248         0.2802        -0.5862        -0.7855         0.0029        -0.4563
         2.4461       506.8600         0.0007         0.2593         0.0177       229.7352        76.6707       103.2292        79.5490         0.1396        60.9726
         2.4482       506.4300         0.0001        -0.0059        -0.0462        -8.4429        -2.8317        -7.3508        -2.7596        -0.0467        -3.3857
         2.4773       500.4800         0.0078        -0.0004        93.9882        -0.2637        31.2414        65.0461        -0.6445        36.6672        33.6896
         2.4910       497.7300         0.0233        50.7520        17.2672         0.6607        22.8933        28.1883        -0.7220        45.7791        24.4151
         2.4985       496.2300         0.0003        -0.2436        -0.2442       -21.3012        -7.2630       -30.0024       -20.6208        -0.1933       -16.9388
         2.5201       491.9800         0.0116        -0.0447        -0.3903      -191.7784       -64.0711      -126.0686       -71.1368        -0.2383       -65.8146
         2.5760       481.3000         0.0003         0.0262         0.1702      -120.1129       -39.9722       -62.8957       -44.5601         0.0880       -35.7893
         2.5903       478.6600         0.2431       112.7606        52.8700         0.3679        55.3328        28.0379        92.9616        43.6671        54.8889
         2.6053       475.8800         0.0015        -0.0330        -0.4076       -84.9372       -28.4593       -45.0859       -48.7147        -0.1760       -31.3255
         2.6287       471.6600         0.0123         0.0018        -2.0012       101.0209        33.0072        35.3116        74.6331        -0.7885        36.3854
         2.6369       470.1800         0.0472       -48.4390      -815.9552         0.1144      -288.0933      -521.9696        -5.4105      -358.7918      -295.3906
         2.6800       462.6300         0.0007         0.0423        -0.4076        93.0451        30.8933        79.2861        29.9287        -0.2149        36.3333
         2.7094       457.6100         0.0004         0.0807         5.1838         3.5694         2.9446         8.4282         2.6548         2.2154         4.4328
         2.7151       456.6500         0.0484       -12.2460       558.0619        -1.0082       181.6026       330.1472       -11.3110       241.5133       186.7832
         2.7374       452.9200         0.0167         0.0224        -0.0539       555.4271       185.1319       400.4813       193.0092        -0.0031       197.8291
         2.7601       449.2100         0.0415         0.0792        -0.1774      -323.0463      -107.7149      -299.8234       -31.8566         0.0057      -110.5581
         2.7659       448.2600         0.0055         0.1367       -99.7560        -0.1757       -33.2650       -39.1488         0.0484       -60.2898       -33.1301
         2.7905       444.3100         0.0294       -91.2729       -75.0802        -0.0178       -55.4570       -39.3759       -40.2123       -95.6736       -58.4206
         2.8079       441.5600         0.0006         1.0493        -0.7036       -56.0780       -18.5775       -40.1737       -32.1731         0.0639       -24.0943
         2.8235       439.1200         0.0303       255.7238      -253.2829        -0.1879         0.7510       -97.9446       148.9027       -68.9806        -6.0075
         2.8402       436.5400         0.0048         0.1569         0.0522       201.8388        67.3493       118.7846       102.9706         0.1122        73.9558
         2.8475       435.4200         0.0354       -80.4926       373.6772         0.1941        97.7929       265.3204       -30.7811        99.9062       111.4819
         2.8953       428.2200         0.0042         0.0150        -0.0327       268.2331        89.4052       183.5886       111.9024         0.0130        98.5013
         2.9422       421.4000         0.0598       -37.8802       -17.2347         0.0152       -18.3666       -55.0756       -29.5226        25.6910       -19.6357
         2.9720       417.1700         0.0054       -10.2057       -28.5591       -10.6999       -16.4882       -32.3182        -5.9711       -18.2502       -18.8465
         2.9733       416.9900         0.0194       -54.1443      -175.8454        -2.1493       -77.3797      -151.9812       -10.8553      -103.0525       -88.6297
         2.9966       413.7500         0.1246       230.3953      -302.9022         0.0351       -24.1573      -197.9820       104.6715        25.7245       -22.5287
         3.0224       410.2100         0.0234         0.0953        -0.2574       195.8851        65.2410       170.0970        60.6778        -0.0104        76.9215
         3.0296       409.2400         0.0264         0.9552         3.7762         0.2153         1.6489         3.6605        -0.2010         2.7907         2.0834
         3.0576       405.4900         0.0001        -0.0054        -0.0929       -29.9762       -10.0248       -13.6971        -7.2447        -0.0313        -6.9910
         3.0773       402.9000         0.0223       -28.8773        74.7377        -0.0046        15.2853        72.2888       -13.2275        -1.8664        19.0650
         3.1015       399.7500         0.0638         1.7273        -0.2585       138.5286        46.6658        27.5096       129.1996         1.2180        52.6424
         3.1051       399.3000         0.2615        59.4124        -3.4465         1.8805        19.2821        -5.4558        26.0185        39.5727        20.0452
         3.1312       395.9600         0.0123         8.7006      -185.6201         2.5772       -58.1141      -150.7337        14.4157       -73.3266       -69.8815
         3.1349       395.5000         0.0064         0.9300        -8.0724       117.8133        36.8903        80.5932        70.1237        -3.5530        49.0546
         3.1447       394.2700         0.5508       224.4011       251.9503        -0.0343       158.7724       248.3527        33.0582       229.1774       170.1961
         3.1560       392.8500         0.0013         0.4449         0.0382       -17.6432        -5.7200       -10.5738        -5.1618         0.2063        -5.1764
         3.1829       389.5400         0.0397      -121.5158      -178.3158         0.0316       -99.9333       -94.9560       -53.6397      -170.6383      -106.4113
         3.1991       387.5600         0.0007        -0.3253        -0.0868        30.3450         9.9776        20.0281        11.3110        -0.1603        10.3930
         3.2084       386.4400         0.0417       -79.6950       -93.4396        -0.0988       -57.7445       -77.4988       -31.9019       -93.5016       -67.6341
         3.2466       381.8900         2.1581      -780.9729      -146.4264         0.0006      -309.1329       -94.8179      -604.0483      -246.6743      -315.1802
         3.2767       378.3800         0.0071        -0.1346        -0.0086       -85.0649       -28.4027        -7.6592       -90.5875        -0.0310       -32.7592
         3.3165       373.8400         0.0021         0.0057         0.0041        36.1934        12.0677        32.3681         4.4471         0.0163        12.2772
         3.3273       372.6300         0.0834      -275.2773       -43.8747        -0.0163      -106.3894       -55.1068      -120.4967      -163.1035      -112.9023
         3.3347       371.8000         0.0267         6.9409        73.0300        -0.0042        26.6556        57.3601        22.9082        -1.1389        26.3765
         3.3479       370.3300         0.0001        -0.0116         0.0119        -0.4325        -0.1441        -1.0216         0.1471        -0.1072        -0.3272
         3.3621       368.7700         0.0110        38.0145       -99.5289         0.0090       -20.5018       -59.7653        11.7037       -15.5587       -21.2068
         3.3768       367.1700         0.0772      -249.9021         2.0203        -0.0220       -82.6346        -3.9930      -132.0994      -104.9612       -80.3512
         3.4070       363.9100         0.2036         0.5208        29.7727        -0.1359        10.0525        16.8911        -0.7054        21.3448        12.5102
         3.4296       361.5100         0.0049        -0.1858         0.0004      -102.6502       -34.2785      -116.7033       -12.2708        -0.1815       -43.0519
         3.4321       361.2500         0.0130        -2.4121         1.9915        -0.3624        -0.2610        29.5343        -1.8463       -28.4723        -0.2614
         3.4386       360.5700         0.0009         0.1009         0.0848       -20.1967        -6.6703        -0.1059       -26.2266         0.0962        -8.7455
         3.4462       359.7700         0.0052        -0.0253         0.0322      -105.8821       -35.2917      -104.4276       -23.5670        -0.0262       -42.6736
         3.4615       358.1800         0.0069        15.5918        15.4680        -0.0347        10.3417        18.8001         0.5137        11.3811        10.2316
         3.4718       357.1200         0.0041         7.0459        52.5845       -11.5368        16.0312        37.7964       -12.4054        29.2060        18.1990
         3.4719       357.1000         0.0032        -5.3244        68.6659        -5.8497        19.1639        46.5597       -11.2235        34.6164        23.3175
         3.4991       354.3300         0.0065         1.4494       -95.6752        -0.2295       -31.4851       -53.7159         0.2765       -53.3688       -35.6027
         3.5110       353.1300         0.0320        87.2645        27.5500        -0.1339        38.2269        38.5762        38.4318        37.8402        38.2827
         3.5188       352.3500         0.0006        -0.0661        -0.2205       -11.4181        -3.9016        -4.5068        -5.0475        -0.1314        -3.2286
         3.5258       351.6500         0.0276       112.2583       -23.1574         0.0047        29.7019       -36.2993        56.4085        53.9426        24.6839
         3.5352       350.7100         0.0367         0.0180        -0.2649      -246.0634       -82.1034      -158.2065      -107.5288        -0.1812       -88.6388
         3.5523       349.0200         0.0140       131.6691       -43.8616         1.5221        29.7765       -25.2465        69.8534        37.6859        27.4309
         3.5580       348.4700         0.0032         0.4160        -0.1398       103.4015        34.5592        49.3614        77.6774         0.1579        42.3989
         3.5694       347.3500         0.0015        -0.1474         0.0336        -3.5095        -1.2078        43.9243       -48.6856        -0.0429        -1.6014
         3.5903       345.3400         0.0060       -10.6749       -16.9961         0.0664        -9.2015        -4.4057        -5.0418       -15.5413        -8.3296
         3.5932       345.0500         0.0023         2.5510        -0.0666        40.1362        14.2069        25.0796        17.6587         0.7765        14.5049
         3.5999       344.4100         0.0126       103.1714         2.8631         0.1880        35.4075         1.1617        60.9115        42.7764        34.9499
         3.6135       343.1100         0.0049        -4.3410        -4.0112        -2.2001        -3.5174       -38.5797        33.0821        -5.0614        -3.5197
         3.6153       342.9400         0.0171       -12.3054       -23.2479        -2.1675       -12.5736       -22.0772         9.3278       -24.6215       -12.4570
         3.6254       341.9900         0.0295        32.1993        31.2567         0.0017        21.1526        10.4368        27.5357        24.7278        20.9001
         3.6284       341.7100         0.0003        -0.1714         0.0068         4.0603         1.2986         6.1349        -2.3041        -0.1102         1.2402
         3.6495       339.7300         0.0423       129.3052        49.4606       -17.1954        53.8568        13.4311        62.0373        86.5437        54.0041
         3.6503       339.6500         0.0162        43.5738        19.9846       -40.4476         7.7036       -28.3505         7.9600        30.8896         3.4997
         3.6574       338.9900         0.0703       178.2977        -4.9332        -0.0489        57.7719         0.6611       108.1105        61.4912        56.7542
         3.6700       337.8300         0.0054        -0.7323        -0.1179       -28.9559        -9.9354       -19.8330        -9.2621        -0.3389        -9.8113
         3.6827       336.6600         0.0272      -157.9974       -43.1942        -0.0570       -67.0829       -44.5733       -82.8087       -72.9989       -66.7936
         3.6898       336.0200         0.0060        83.7909        29.4882        -0.5430        37.5787        21.4145        37.4271        51.0651        36.6356
         3.6907       335.9400         0.0018         0.1348        -0.1645        -5.7369        -1.9222        -2.1496        -6.5844         0.3243        -2.8032
         3.6999       335.1000         0.0110       -63.5588        57.7209       -43.2929       -16.3770         6.7253       -43.3358         1.1829       -11.8092
         3.7006       335.0300         0.0056        -6.7721         3.6483        74.9697        23.9486        58.4039        34.5365        -0.8870        30.6845
         3.7011       334.9900         0.0127       -45.0915        38.3151       -85.8761       -30.8842       -38.7431       -50.7225         0.1804       -29.7617
         3.7188       333.4000         0.0109        24.4653        -7.5563         1.1117         6.0069        -7.9630         6.5934        16.5701         5.0668
         3.7195       333.3400         0.0014         2.6735        -1.6678        30.1950        10.4002        17.1658        12.2420         0.9132        10.1070
         3.7259       332.7600         0.0002         0.1330        -0.1780         5.9891         1.9814        -0.5969         2.4728        -0.0214         0.6181
         3.7367       331.8000         0.0046        -4.5657      -103.3889         0.0311       -35.9745       -53.2581        -6.9063       -48.7412       -36.3019
         3.7431       331.2400         0.0164        90.6571        71.4720        -0.1085        54.0069        61.3233        50.5121        45.0837        52.3064
         3.7567       330.0300         0.0010        -4.7340        -8.0615        -2.6152        -5.1369        -2.3763        -3.2137        -3.0572        -2.8824
         3.7593       329.8000         0.0022        -0.2010         1.4797       100.9876        34.0888        81.7238        34.2461         0.6848        38.8849
         3.7625       329.5300         0.0105         0.4554        -0.6280        28.9108         9.5794        11.0846        20.6936        -0.0900        10.5628
         3.7731       328.6000         0.0499       135.1194       175.6214         0.0940       103.6116       147.3341        70.6577       112.1998       110.0638
         3.7859       327.4900         0.0521        47.7014        31.8187         0.0074        26.5092        21.8664       -14.1648        64.4283        24.0433
         3.7935       326.8400         0.0688        -6.9990        -5.1685         1.5268        -3.5469         1.0155       -22.5972        15.5341        -2.0158
         3.7962       326.6000         0.0136         0.1204        -0.7929        66.7664        22.0313        53.1150        12.4501         0.3518        21.9723
         3.8086       325.5400         0.0022        -1.1273        -3.8425       -12.1212        -5.6970        10.4863       -28.6050        -1.3881        -6.5023
         3.8098       325.4400         0.0782       -66.4572      -272.5352         0.4827      -112.8366      -220.5982       -47.4755      -106.9952      -125.0230
         3.8193       324.6300         0.0228        -0.1401        -3.0670       147.4376        48.0769       170.2880       -23.5423        -0.7366        48.6697
         3.8230       324.3100         0.0819       121.5599      -216.6060         0.0204       -31.6752      -141.4499        75.1136       -48.7288       -38.3551
         3.8287       323.8300         0.0018        -0.0092         0.0133        26.6299         8.8780        43.1946        -7.4951        -0.0086        11.8970
         3.8380       323.0400         0.0299        88.5826       -17.1782         0.2942        23.8995        -6.1328        17.8387        56.3042        22.6700
         3.8444       322.5000         0.0001         0.1008        -0.0724         6.8282         2.2855         7.2894         5.5387        -0.0063         4.2739
         3.8541       321.6900         0.0091        20.0853        53.9382        -5.1899        22.9445       -15.5177         6.2261        82.1510        24.2864
         3.8589       321.2900         0.0411         0.4465        -0.1319      -288.2494       -95.9782      -323.2969        13.0561         0.2550      -103.3286
         3.8650       320.7800         0.0172        -4.9398       -44.5635        -2.1696       -17.2243      -142.7491        -5.8648        92.9907       -18.5411
         3.8706       320.3200         0.0005         0.5499         0.0473       -18.7534        -6.0520         6.9270       -26.8659         0.4206        -6.5061
         3.8724       320.1700         0.0289        74.9419       -18.7339        -0.7961        18.4706        -5.5473        43.4058        20.2974        19.3853
         3.8830       319.3000         0.0950       334.4865       175.7193        -0.2282       169.9925       184.8670       158.0540       190.9659       177.9623
         3.8880       318.8900         0.0254       -73.6526         4.4826        -0.3965       -23.1888        14.1662       -12.2280       -53.5556       -17.2058
         3.8884       318.8500         0.0176        -2.0708        -0.7186       -27.9238       -10.2377       -42.2214        10.9605        -2.0713       -11.1107
         3.8956       318.2600         0.0472        -0.7565        -0.0086       109.5200        36.2516       -46.2021       163.8657        -0.4518        39.0706
         3.8976       318.1000         0.0145        11.8225         5.6227        -0.8795         5.5219        33.4709        17.0763       -34.0691         5.4927
         3.9071       317.3300         0.0114        -0.9656         0.1679        44.0992        14.4338         8.4503        38.3645        -0.7835        15.3438
         3.9165       316.5700         0.0066        -0.1057         0.1431       -55.0796       -18.3474       -34.0625       -26.6541        -0.0298       -20.2488
         3.9217       316.1500         0.0794      -284.5957       106.8107        -0.4835       -59.4228        79.3040      -124.7882      -116.9310       -54.1384
         3.9248       315.9000         0.0570        -1.1263         0.0683      -145.3004       -48.7861      -237.5418        83.7838        -0.1972       -51.3184
         3.9328       315.2500         0.0291         0.6971       -90.1932        -0.1449       -29.8804      -146.2725         0.3480        54.5523       -30.4574
         3.9352       315.0600         0.0297        15.0550       -12.5233        -1.3972         0.3782       -11.0712         6.0705         6.0499         0.3497
         3.9403       314.6500         0.0033        -3.7195        -4.0366        -9.6011        -5.7857       -11.2539         0.9917        -5.1436        -5.1353
         3.9437       314.3900         0.0621       -40.7338      -159.7253        -0.7442       -67.0678       -22.7296       -28.1994      -161.0478       -70.6589
         3.9568       313.3400         0.0147        -4.6732      -244.5928         0.1915       -83.0248      -109.4895        -3.7362      -150.9153       -88.0470
         3.9612       313.0000         0.0115        -0.0970         0.0277        79.5022        26.4776        73.2725        11.2606        -0.0243        28.1696
         3.9649       312.7000         0.0074         4.8626        -6.8318       -58.7589       -20.2427       -18.6997       -39.8187        -8.3885       -22.3023
         3.9661       312.6100         0.0325        44.3051       -65.2283        -6.8059        -9.2430        11.0807        19.9315       -71.7824       -13.5901
         3.9749       311.9100         0.0206        -3.9565       110.3336        -4.4208        33.9854        98.1362        -6.5815        17.7037        36.4195
         3.9753       311.8800         0.0036        -0.0921        15.7094       -25.9280        -3.4369        -1.8290        -8.1527         0.3980        -3.1945
         3.9822       311.3400         0.0001         0.2751        -3.9144         0.7079        -0.9771         0.0821        -0.4180         0.1072        -0.0763
         3.9836       311.2400         0.0002         6.2900        -6.5435         1.2445         0.3303        -4.4964         2.4412         4.4143         0.7864
         3.9891       310.8000         0.0191        -9.0565       -42.3056        -0.6125       -17.3249       -46.0214        -8.8399       -12.1157       -22.3257
         3.9906       310.6900         0.0069        -0.3422        -0.3705        47.5752        15.6208        69.9261       -21.3637        -0.3021        16.0868
         3.9984       310.0900         0.0342      -173.5140        -7.3389         2.4994       -59.4511        -4.5004       -97.9288       -72.4018       -58.2770
         3.9993       310.0200         0.0058       -28.9025        -1.9158        22.4933        -2.7750        20.1719       -17.1075       -11.6803        -2.8720
         4.0106       309.1400         0.0560        93.0256       -35.3981        -5.0268        17.5336       -26.3909        65.0174        14.9106        17.8457
         4.0122       309.0200         0.0175        13.3758        -4.0064       -44.7741       -11.8016       -83.1570        42.0967         2.6912       -12.7897
         4.0171       308.6400         0.0001         0.0427        -0.4470        -1.3736        -0.5926        -2.5729         0.0724        -0.0407        -0.8471
         4.0202       308.4000         0.0098         0.2350         0.0153        14.9025         5.0509         3.5869        13.0593         0.1041         5.5834
         4.0277       307.8300         0.0576      -100.4959       108.3317         1.1346         2.9901        30.4727       -52.4255        42.5910         6.8794
         4.0316       307.5300         0.0309        -0.0347         0.4322        78.5300        26.3092        42.9351        38.2074         0.4852        27.2092
         4.0327       307.4500         0.0886      -135.6215        76.3577         0.0786       -19.7284         4.8565       -70.3751        20.3133       -15.0684
         4.0451       306.5100         0.0027        -2.3418         1.1255        -0.7217        -0.6460        -0.3896         0.9866        -2.4297        -0.6109
         4.0477       306.3100         0.0013       -33.5305         0.5341        -0.1030       -11.0331        -1.2474       -14.6684       -13.8754        -9.9304
         4.0503       306.1100         0.0002        -3.1876         0.0540         0.2794        -0.9514         0.9437        -3.2225        -1.4038        -1.2275
         4.0638       305.1000         0.0093         0.6387        -0.1596       -45.9133       -15.1447       -23.1549       -24.5461         0.6345       -15.6888
         4.0647       305.0300         0.0056        23.5994        -2.4672         0.3790         7.1704       -22.0808         8.3722        32.4648         6.2521
         4.0658       304.9500         0.0039         6.0565        -1.7250        18.4771         7.6028        20.2633        -4.0254         7.6647         7.9675
         4.0744       304.3000         0.0295         3.4979      -135.6685         0.0175       -44.0510       -61.8629        -3.7014       -68.1517       -44.5720
         4.0783       304.0100         0.0124        -0.1363        -1.1282       -21.4294        -7.5646       -12.9172       -12.8432         0.0262        -8.5781
         4.0806       303.8400         0.0087       -27.3908        61.4268        -8.7694         8.4222        19.7713       -19.3070        32.0141        10.8261
         4.0814       303.7800         0.0098       -38.3072        63.6229       -12.8342         4.1605        20.2823       -27.5884        27.9136         6.8692
         4.0903       303.1200         0.0140        27.1586        97.0941        -0.1064        41.3821       117.3386         7.1720         7.9137        44.1414
         4.0976       302.5800         0.0015         1.5848        -5.1579        38.4277        11.6182        22.7429        22.2340         2.2245        15.7338
         4.1003       302.3800         0.0028       -55.8514        16.1507         0.2626       -13.1460        16.9221       -23.4347       -24.3438       -10.2855
         4.1011       302.3200         0.0181        27.9016       -78.0955         7.3678       -14.2754      -134.8354        25.7416        58.0361       -17.0193
         4.1037       302.1300         0.0451         0.4259        -0.0750       100.5700        33.6403        80.7983        28.0972         1.6900        36.8618
         4.1169       301.1600         0.0357        45.2956        -0.1285         2.1607        15.7759       -29.7328        21.6172        53.6531        15.1792
         4.1189       301.0100         0.0023         0.9460         1.4918        21.4185         7.9521        11.4296        11.1110         2.6286         8.3898
         4.1206       300.8900         0.0003         2.2997         2.8956         1.2784         2.1579         2.5086         1.0668         3.2919         2.2891
         4.1254       300.5400         0.0063        53.8903        46.0222        -0.3593        33.1844        15.3384        30.8209        60.9128        35.6907
         4.1291       300.2700         0.0295        70.3067       235.6298         0.0828       102.0064       143.0484        31.3588       147.4167       107.2746
         4.1366       299.7300         0.0149      -108.4883        84.6891         0.9716        -7.6092        83.7312       -49.3385       -45.8270        -3.8115
         4.1404       299.4500         0.0131        -0.7162         2.5504        11.6293         4.4878      -107.5947       121.6001         1.1114         5.0389
         4.1448       299.1300         0.0003         0.6447         0.2025         7.5300         2.7924         4.3073         7.5364         0.6743         4.1727
         4.1483       298.8800         0.0258        83.3366         5.4164        11.2767        33.3432         4.3116        46.2924        50.8499        33.8180
         4.1488       298.8400         0.0108        13.4958         1.6416        74.0472        29.7282        15.2910        75.3058         9.8754        33.4907
         4.1516       298.6400         0.0002        -1.5662        -0.0810         0.0505        -0.5322       -10.5722        -0.4322         8.1632        -0.9471
         4.1645       297.7200         0.0248         0.4956        -1.5733       -30.2546       -10.4441       -55.8580        22.7784        -0.8827       -11.3207
         4.1680       297.4700         0.0604        -0.0326        -6.0178       210.1816        68.0437       242.3029       -17.0845        -5.6037        73.2049
         4.1690       297.3900         0.0461       -16.7676      -150.6213         1.5471       -55.2806       -41.5936         3.2804      -127.6174       -55.3102
         4.1707       297.2700         0.0135         0.4649       -20.2959       -21.6265       -13.8191        65.1292       -94.7245       -15.0801       -14.8918
         4.1741       297.0300         0.0210        -1.4637        28.8518         1.0677         9.4852        58.9159        -5.3092       -24.6649         9.6473
         4.1766       296.8600         0.0482        -0.6301         0.2799        43.0858        14.2452       238.0352      -189.9687        -0.0506        16.0053
         4.1812       296.5300         0.0148       -57.4680        67.6162       -46.4420       -12.0979       -11.4764       -23.4292         5.8896        -9.6720
         4.1833       296.3800         0.0118       -11.4460        19.1043      -165.5626       -52.6348      -170.6136         4.9688         4.4273       -53.7392
         4.1863       296.1700         0.0262        -2.6835        -0.3917      -156.2014       -53.0922      -230.1684        60.7911        -2.2391       -57.2054
         4.1894       295.9500         0.0530      -198.9497        40.3772        -1.1066       -53.2264       -16.9355      -116.7946       -16.8844       -50.2048
         4.1966       295.4400         0.0376       -74.4103        35.0387        -2.0609       -13.8108        46.8465       -34.2204       -47.8601       -11.7446
         4.2040       294.9200         0.0117        -0.0756        -0.4160         2.0438         0.5174         9.6925        -7.7701        -0.0865         0.6120
         4.2069       294.7200         0.0078        -2.0525      -161.8370         1.2033       -54.2287       -98.0210        -1.7870       -73.0251       -57.6110
         4.2099       294.5100         0.0139         0.0405        -2.6133        77.5919        25.0064        73.5443        10.2669        -2.7879        27.0078
         4.2178       293.9500         0.0320        74.4009         4.4120         3.1426        27.3185        34.4824        36.5428         5.6699        25.5650
         4.2186       293.9000         0.0116         1.0134        -0.2565        83.9996        28.2521       -47.5055       134.6687         0.5398        29.2343
         4.2210       293.7300         0.0032         1.8110         0.0459       -44.3866       -14.1766       -61.2383        17.4545         1.2140       -14.1899
         4.2254       293.4300         0.0139        -0.6093       146.0196        -0.0115        48.4662       180.8671        -1.3051       -26.5526        51.0032
         4.2325       292.9300         0.0013         0.0654         1.1133         5.8479         2.3422        23.3010       -16.1907         0.4755         2.5286
         4.2354       292.7300         0.0411       -50.5612       -61.6593        -0.1186       -37.4463       -26.2407       -16.4090       -64.6319       -35.7605
         4.2414       292.3200         0.0072         0.2877         0.3279      -129.5328       -42.9724       -34.1730       -87.2685        -0.6015       -40.6810
         4.2454       292.0500         0.1106       -32.9342       187.2564        -0.1142        51.4027       201.2232       -43.1643        13.7737        57.2775
         4.2508       291.6700         0.0268        25.6322       -11.4907         0.8729         5.0048       -21.4509        -1.0338        34.3218         3.9457
         4.2518       291.6100         0.0029         0.6463         0.4577        40.9709        14.0250        16.4938        27.2146         1.2750        14.9945
         4.2557       291.3400         0.0001         0.8068         0.1902        -5.6500        -1.5510         0.6137         0.5403         0.3542         0.5027
         4.2586       291.1400         0.0125       118.3548        97.5750         0.0176        71.9824        57.7129        65.4872        79.2736        67.4912
         4.2629       290.8400         0.0369       108.8025       -13.3776        -0.2677        31.7191       -31.5215        46.1546        64.1046        26.2459
         4.2705       290.3300         0.0120       -52.5143         4.5676        -1.6947       -16.5471        -2.9494       -21.4107       -23.3265       -15.8955
         4.2729       290.1600         0.0225         0.1170         2.7567      -114.8747       -37.3337       -63.7155       -56.6510         0.5152       -39.9504
         4.2760       289.9500         0.0065         0.1192         2.0636       -35.9059       -11.2410        22.4812       -55.6580         0.2876       -10.9631
         4.2808       289.6300         0.0325        83.5996       157.5791        -0.0001        80.3929       123.4096        46.8131        76.1210        82.1146
         4.2836       289.4400         0.0116        81.5330       -15.1500         0.1748        22.1860        -8.6222        50.7974        23.3306        21.8353
         4.2899       289.0100         0.0362        -6.2433        66.4135        -2.4517        19.2395       -17.2256        -6.5561        87.7816        21.3333
         4.2912       288.9300         0.0110        25.7310        19.3692        11.1684        18.7562         7.5736        21.0830        34.5174        21.0580
         4.2921       288.8700         0.0236       139.2742        -5.9028        -0.9312        44.1467        -1.3008        72.2273        57.2550        42.7271
         4.2947       288.6900         0.0096         0.2879        -0.3814       -51.6722       -17.2552       -34.7819       -26.3917        -0.0959       -20.4232
         4.2963       288.5800         0.0002         0.2982        -0.2236       -12.8224        -4.2493        -4.5070       -16.4303         0.0423        -6.9650
         4.3014       288.2400         0.0625        -4.8857        91.9452         0.4465        29.1687        82.6406       -20.4332        27.2417        29.8164
         4.3083       287.7800         0.0091        62.7068        24.0626        -3.2483        27.8404        20.1134        21.9414        42.6391        28.2313
         4.3110       287.6000         0.0271         0.7752         0.1868      -275.2043       -91.4141      -102.6282      -169.5171         0.7595       -90.4620
         4.3184       287.1100         0.0082       -21.9748       181.2034         0.4721        53.2336       186.8600       -11.2490        -4.6893        56.9739
         4.3204       286.9700         0.0089        -0.0494         4.4334        -4.6287        -0.0816        13.1291       -13.9913        -0.2060        -0.3560
         4.3217       286.8800         0.0008        -0.2657        -0.1154        -3.2521        -1.2110         6.7538       -10.8853        -0.0948        -1.4088
         4.3245       286.7000         0.0021         1.7393        -6.2654        -3.8794        -2.8018        -1.3588         2.0142        -6.4162        -1.9203
         4.3250       286.6700         0.0210        17.5380       -47.4393        -0.1071       -10.0028        11.9090        17.9033       -58.1623        -9.4500
         4.3287       286.4200         0.0009         0.3660         0.4589        15.1580         5.3276        25.8731        -3.7239         0.5073         7.5522
         4.3319       286.2100         0.0041         8.6109        14.8389         3.7764         9.0754         6.7383         6.0144        16.5669         9.7732
         4.3325       286.1700         0.0055         0.0677         4.6134        83.0394        29.2401        44.8105        48.3056         2.1914        31.7692
         4.3424       285.5200         0.0097       -18.5938        14.7029         0.2645        -1.2088         4.7916        -0.7696        -7.5566        -1.1782
         4.3470       285.2200         0.0081         0.4652         0.1694       -49.9154       -16.4269      -113.6213        63.0896         0.2195       -16.7707
         4.3503       285.0000         0.0019       -11.3997        -1.6679        -1.4310        -4.8329        -4.3428        -4.4552        -3.7548        -4.1843
         4.3504       285.0000         0.0013         0.1981         0.0558       -27.9760        -9.2407       -24.6511        -0.9833         0.0547        -8.5266
         4.3541       284.7500         0.0040         2.2268        -0.4926       -72.7846       -23.6835       -54.5665       -14.3936         1.0112       -22.6496
         4.3564       284.6000         0.0799        61.6368        42.6448        -3.8502        33.4771        59.3089        37.3376         0.5145        32.3870
         4.3572       284.5500         0.0052        -5.5754        -0.0429       -12.2906        -5.9696        -3.5615        -8.2246        -5.2598        -5.6820
         4.3605       284.3400         0.0164       -47.6348        -4.9403        -0.0290       -17.5347       -58.1683       -19.1889        29.4951       -15.9541
         4.3684       283.8200         0.0969       -21.1613        24.5705        -0.0063         1.1343        41.8758       -24.1942       -11.3924         2.0964
         4.3731       283.5200         0.0034         3.4249        -6.0994        -2.7765        -1.8170       -18.3831        12.5949         0.2710        -1.8390
         4.3742       283.4400         0.0295        31.9015      -190.7317        -0.2622       -53.0308      -180.9524        29.7951        -5.5845       -52.2473
         4.3792       283.1200         0.0030        -7.1322       -18.0262        42.8514         5.8977        13.5665        11.7726        -8.0840         5.7517
         4.3806       283.0300         0.0203       -56.7203       -76.1580         0.4275       -44.1503       -36.3765       -38.9706       -58.8624       -44.7365
         4.3823       282.9200         0.0097         8.9223        79.1523         4.8046        30.9597        86.1835         7.7189         4.6586        32.8537
         4.3827       282.9000         0.0050        -2.3451        -6.1366        55.1560        15.5581        28.2868        21.1817        -6.8317        14.2122
         4.3906       282.3800         0.0080        -0.1061        -0.1073       -10.4234        -3.5456       -43.4837        33.0290        -0.3008        -3.5851
         4.3957       282.0600         0.0044         0.5635         0.0127       -59.8884       -19.7707       -45.4648        -9.5095         0.2058       -18.2561
         4.4006       281.7400         0.0051         8.2832       -15.6874         1.7322        -1.8906       -33.5083         8.7007        14.8429        -3.3216
         4.4026       281.6200         0.0224         0.9670         0.1378       178.9633        60.0227        82.8923        98.3579         0.5745        60.6082
         4.4037       281.5400         0.0038        -4.6502         1.5910        27.7419         8.2276        11.4873        14.6149        -2.5013         7.8670
         4.4077       281.2900         0.0232         0.0476         0.8339       -64.1309       -21.0831        18.2533       -87.1020         1.8093       -22.3465
         4.4115       281.0500         0.0157        -1.3228         7.5306        -0.5425         1.8884       -84.1429        -1.1761        90.9472         1.8761
         4.4165       280.7300         0.0005         0.0473         1.1866         0.0337         0.4225        -2.7879         1.4804         2.7722         0.4882
         4.4220       280.3800         0.0124        -3.7836        81.4641        -0.2434        25.8124       111.5396         4.9478       -33.7710        27.5721
         4.4229       280.3200         0.0038        -1.0118        -0.8578       -10.7903        -4.2199         5.1126       -18.2722         1.3518        -3.9359
         4.4263       280.1100         0.0798        46.2242       446.1184        -0.1008       164.0806        47.9974        12.1131       457.7349       172.6151
         4.4264       280.1000         0.0583       -13.9940        56.2501        -0.5719        13.8947       199.0749       -28.1078      -126.1482        14.9396
         4.4288       279.9500         0.0008         1.7979         2.3054         4.8611         2.9881        -0.9279         5.9953         4.5893         3.2189
         4.4313       279.7900         0.0061       -16.1888         1.1143         2.7151        -4.1198         2.2229        -6.1655        -8.5743        -4.1723
         4.4330       279.6800         0.0025        -0.5568         0.3134         5.3073         1.6880        -1.3041         0.4195         4.3659         1.1605
         4.4353       279.5400         0.0022         0.6258         0.9374       -22.9248        -7.1206       -34.5266         6.4701         2.0713        -8.6617
         4.4406       279.2100         0.0544       200.2545       -53.6140         4.5201        50.3868         5.1583        96.2234        31.7536        44.3785
         4.4418       279.1300         0.0070        19.2914        -4.1939        46.7684        20.6219        56.8842        -2.7778         4.1875        19.4313
         4.4464       278.8400         0.0003         0.7032        -0.5970         1.4587         0.5216         3.5714        -0.6413        -0.4853         0.8149
         4.4491       278.6700         0.0025        -3.3173         0.6615        26.6893         8.0112        17.3426        11.8721        -1.7452         9.1565
         4.4510       278.5600         0.0523      -157.3795        78.4905         0.0519       -26.2790        30.4359       -86.7061       -22.2741       -26.1814
         4.4524       278.4700         0.0120         4.4820       -32.5224        -0.1529        -9.3977        58.2931        -4.8767       -80.7779        -9.1205
         4.4564       278.2100         0.0217       -28.8585         4.2245       -67.8092       -30.8144       -52.4910       -32.9088       -10.0714       -31.8238
         4.4570       278.1800         0.0131       -18.0794        -0.2751       -35.3798       -17.9114       -35.4583       -18.9755         0.6548       -17.9263
         4.4624       277.8400         0.0052        11.6873       -30.2750         0.0358        -6.1840        26.8520         4.4025       -52.9590        -7.2348
         4.4658       277.6300         0.0051         2.1010        -0.0543        52.2248        18.0905        13.8228        36.5450         0.9862        17.1180
         4.4739       277.1300         0.0284         2.1533        -0.9245      -200.2141       -66.3284      -145.3995       -66.7511         0.6183       -70.5108
         4.4749       277.0700         0.0834        55.9560       -18.8727        -2.5397        11.5145        -8.9489        31.5926         9.2053        10.6164
         4.4805       276.7200         0.0026         0.2891        -6.3326        40.3729        11.4432        10.0254        30.2965        -1.2638        13.0194
         4.4815       276.6600         0.0087        18.0039       -71.6514         3.4855       -16.7206       -50.1198        11.8841        -8.3935       -15.5431
         4.4839       276.5100         0.0126       -72.5802         8.8931         0.3598       -21.1091        15.7960       -37.6471       -37.1477       -19.6662
         4.4912       276.0600         0.0089        10.8725         2.3872       -55.2974       -14.0126       -29.3166       -18.6597         4.7009       -14.4251
         4.4930       275.9500         0.0961        47.5261      -150.4239         1.6535       -33.7481      -129.2534        65.5204       -39.2227       -34.3186
         4.4948       275.8400         0.0126        -4.1876        -6.3127        60.6777        16.7258        28.6182        26.0706        -0.4742        18.0715
         4.4950       275.8300         0.0120        99.7393        16.7863         1.4112        39.3122        -8.0158        57.3514        67.6443        38.9933
         4.4981       275.6300         0.0089       -64.8686        -3.9512         0.6048       -22.7384         4.3154       -45.6396       -24.7443       -22.0228
         4.5047       275.2300         0.0161        33.0937        71.9986         3.0809        36.0578        84.9659        32.1500        -2.6267        38.1631
         4.5064       275.1300         0.0041        -0.7162         0.3389        72.0111        23.8779        52.9169        29.8995        -2.0905        26.9086
         4.5126       274.7500         0.0141        -2.7927       -15.1755        15.2002        -0.9227       -89.9795       108.2535       -22.6573        -1.4611
         4.5130       274.7300         0.0039        -1.6219       -34.9184        -3.2221       -13.2541        -9.0560        16.1268       -49.8996       -14.2763
         4.5135       274.7000         0.0224       -21.8461        23.6910        29.3684        10.4044        86.4947       -24.3300       -26.3016        11.9543
         4.5141       274.6600         0.0228         0.8583       -16.6634        44.4074         9.5341       133.0095       -41.0849       -61.8785        10.0153
         4.5205       274.2700         0.0081        -0.0565        -0.5012       -18.7628        -6.4401        59.3433       -79.4578        -0.6395        -6.9180
         4.5234       274.0900         0.0027         3.2119         8.9658         1.4322         4.5367         2.9036         3.9853         6.9079         4.5989
         4.5240       274.0600         0.0015         1.4390         3.9623         5.4343         3.6118        -1.0887        12.0628         3.0780         4.6840
         4.5337       273.4700         0.0341        -0.0018        -0.0093      -188.9085       -62.9732      -138.5135       -58.8168        -0.0218       -65.7840
         4.5355       273.3600         0.0249       -10.5163      -108.3159        -0.2424       -39.6915       -59.6847       -17.5646       -51.9984       -43.0826
         4.5398       273.1000         0.0159        -0.0890        -0.1232      -141.4126       -47.2083      -146.4664        -4.7678        -0.0866       -50.4403
         4.5430       272.9100         0.0370         3.0287       211.6294         0.1482        71.6021       256.5434         7.6220       -40.5754        74.5300
         4.5473       272.6500         0.0146        56.1148       -21.3704         0.1605        11.6349       -10.6916        46.6588         3.4017        13.1230
         4.5494       272.5300         0.0007         0.2050         0.9505         0.0512         0.4022        -3.3698         4.9075        -0.3270         0.4036
         4.5531       272.3100         0.0006        -0.0383         0.3639        -1.6951        -0.4565        -4.0948         2.7151        -0.7234        -0.7010
         4.5575       272.0500         0.0137        12.7578       -10.9501       -11.3805        -3.1909       -12.2225         6.2974        -4.6468        -3.5240
         4.5588       271.9700         0.0015         0.1775        -0.5693        60.8613        20.1565        21.8753        49.2627        -0.0965        23.6805
         4.5614       271.8100         0.0434         2.4354        -6.1180      -217.4015       -73.6947      -112.5434      -115.1806        -5.3573       -77.6938
         4.5644       271.6400         0.0222         6.3385       -95.4505       -13.7958       -34.3026       -28.8091        -5.3193       -75.7328       -36.6204
         4.5685       271.3900         0.0131       -12.4314        -0.3435        21.2972         2.8408        26.8489        -9.8989        -6.2951         3.5516
         4.5701       271.3000         0.0447       -74.8912        30.1362         0.0026       -14.9174        17.5834       -33.2959       -21.1440       -12.2855
         4.5715       271.2100         0.0018       -24.8262       -25.6461        -3.3902       -17.9542       -17.3423       -11.1531       -26.0076       -18.1677
         4.5741       271.0500         0.0035        -0.8398        -0.3080        78.8977        25.9167        43.6993        38.2621        -0.5907        27.1236
         4.5765       270.9200         0.0595       -71.0842       -22.1265         0.9354       -30.7585       -42.7300        -9.2763       -38.3592       -30.1218
         4.5820       270.5900         0.0054         1.4556        -0.2739        45.8744        15.6854        31.0832        18.9595        -0.7580        16.4282
         4.5846       270.4300         0.0226        17.2574         0.7549      -108.2413       -30.0763       -45.0790       -54.4827         3.2661       -32.0985
         4.5853       270.4000         0.0253        15.9254         1.3203        72.6555        29.9671        65.4105        25.8851         3.0953        31.4636
         4.5866       270.3200         0.0145        25.4795        -0.7282        -2.9733         7.2593        -4.4111        22.5144         3.1700         7.0911
         4.5892       270.1600         0.0535        55.9282       230.8893         1.7576        96.1917       246.2920         1.9836        40.0013        96.0923
         4.5935       269.9100         0.0043        -0.3270        -0.2369        36.2877        11.9079         6.2688        28.5862         0.1269        11.6606
         4.5946       269.8500         0.0528       -25.0464        90.3259        -0.0561        21.7411        72.6745       -22.9101        29.5915        26.4520
         4.5997       269.5500         0.0285        44.9953        41.1342        -1.9895        28.0467       -10.8544        -7.0293       102.5920        28.2361
         4.6010       269.4700         0.0204         0.2380         0.3816         8.4032         3.0076       149.6250      -140.9433         0.8050         3.1622
         4.6072       269.1100         0.0360         5.9439         2.4767      -123.0109       -38.1967      -151.8778        20.0968         7.4350       -41.4487
         4.6079       269.0700         0.0053        15.6563        -7.1876        -7.4934         0.3251       -27.1306        10.4572        19.3134         0.8800
         4.6113       268.8700         0.0086        -1.3190         2.2749        62.9547        21.3035        94.3524       -25.7647         1.0124        23.2000
         4.6123       268.8100         0.0046         1.8874        11.2102        15.2265         9.4414        23.6352        -3.7559         7.7262         9.2018
         4.6140       268.7100         0.0012         0.1663        -0.0365         1.2443         0.4580       -21.4993        22.6004         0.3445         0.4819
         4.6199       268.3700         0.0104        17.5133      -149.7704         0.7422       -43.8383      -137.9635         8.0343       -22.4623       -50.7971
         4.6222       268.2400         0.0210         0.0738        -0.2872        77.8005        25.8624       113.7384       -36.7838        -0.3037        25.5503
         4.6250       268.0800         0.0104        -6.7644       -22.2779        13.6678        -5.1249        27.3476        -4.1833       -37.3512        -4.7290
         4.6257       268.0300         0.0201        -6.1780       -11.3946        36.6655         6.3643        65.6411       -29.0294       -17.4156         6.3987
         4.6288       267.8500         0.0049        -0.7945        -3.5241       -56.4361       -20.2516       -41.6048       -17.0004        -2.1668       -20.2573
         4.6315       267.7000         0.0044       -54.4070        32.6186         0.2145        -7.1913        13.9583       -17.2383       -19.6502        -7.6434
         4.6360       267.4400         0.0447        18.6671       151.2378         0.8434        56.9161        89.0811        10.9560        79.2624        59.7665
         4.6398       267.2200         0.0376        16.8353      -109.7846         0.8424       -30.7023      -143.6295       -20.6631        72.1664       -30.7088
         4.6418       267.1100         0.0051        -0.5652         3.4875        37.6019        13.5081        10.0377        32.3202         0.5120        14.2900
         4.6452       266.9100         0.0014        -0.3002        -0.1013         2.5869         0.7285         1.7168         1.2721        -0.1368         0.9507
         4.6499       266.6400         0.0046         0.2799         1.3386        22.1851         7.9345        42.0221       -18.6380         0.7795         8.0545
         4.6507       266.5900         0.1035       -75.8743        32.0909         0.2929       -14.4968        35.3139       -19.5527       -53.8552       -12.6980
         4.6549       266.3500         0.0022        -0.1815        -0.2747       -75.6653       -25.3738       -79.7344        -5.4182         0.1220       -28.3435
         4.6563       266.2700         0.0152        23.3696       -28.9383         2.3297        -1.0797       -92.7926        11.7285        74.8933        -2.0569
         4.6611       266.0000         0.0150      -109.2137       -26.4908        -0.7583       -45.4876       -21.6869       -47.5195       -63.8580       -44.3548
         4.6660       265.7200         0.0155        -0.7783        -0.7917       -69.3408       -23.6370       -21.1178       -56.5205        -0.0996       -25.9126
         4.6708       265.4500         0.0235        15.6449      -102.6605         0.0814       -28.9781       -35.7769         8.1598       -72.9110       -33.5094
         4.6722       265.3700         0.0008        -1.4207         0.2165        -4.9327        -2.0456        -9.1790         3.6616        -0.5879        -2.0351
         4.6780       265.0400         0.0068        -3.0452        -4.2309        11.8076         1.5105        -4.9607        18.7514        -8.4819         1.7696
         4.6787       265.0000         0.0367       -42.4168         6.4474         0.1334       -11.9453        65.9711       -25.5034       -72.4117       -10.6480
         4.6812       264.8600         0.0344       -96.5954        -6.5221         1.4819       -33.8785        -1.2965       -35.7314       -55.0468       -30.6915
         4.6825       264.7800         0.0086       -10.0737         1.7934        21.5693         4.4297         0.8724        13.1857        -3.7582         3.4333
         4.6864       264.5600         0.0014         0.0833        -0.2145         5.2716         1.7135       -24.8002        30.2426        -0.5116         1.6436
         4.6871       264.5200         0.0113        46.5241         0.9542        -0.2811        15.7324        45.5329        26.3526       -25.5238        15.4539
         4.6902       264.3500         0.0241        46.5656         5.5696        -0.0555        17.3599         8.8310        14.9815        26.3893        16.7340
         4.6963       264.0100         0.0008         0.1013         0.9206        28.9088         9.9769        -5.9743        28.1952         1.1731         7.7980
         4.6997       263.8200         0.0034        -0.0405         0.0177        -4.0264        -1.3497        -5.8684         2.2403        -0.0459        -1.2247
         4.7005       263.7700         0.0130       -21.5227        15.5241        -0.6264        -2.2084         9.8399        -6.0695        -7.3485        -1.1927
         4.7046       263.5400         0.0003         0.3667        -0.0269        -6.7711        -2.1438        -0.5246        -6.2226         0.2586        -2.1629
         4.7051       263.5100         0.0098        35.5989        12.6882         0.6672        16.3181         4.8864        16.9852        22.3399        14.7371
         4.7098       263.2500         0.0128        32.8567       -20.0896        -0.9857         3.9271       -48.2072         1.6724        54.4030         2.6227
         4.7112       263.1700         0.0013         0.2211        -0.2650       -13.2021        -4.4153        -6.7473        -4.9752         1.1159        -3.5356
         4.7136       263.0300         0.0018         2.9291        10.2463         0.4230         4.5328         9.1145        -0.3265         5.9114         4.8998
         4.7160       262.9000         0.0062         0.0289         0.1101       147.7069        49.2820        82.8895        60.4215         0.0171        47.7760
         4.7178       262.8000         0.0068        -0.1326        -0.6547        37.0090        12.0739        -9.4406        45.0024         0.0273        11.8630
         4.7222       262.5600         0.0151       -17.7973         7.4282         6.7480        -1.2070         4.5284         7.6148       -14.9258        -0.9275
         4.7232       262.5000         0.0455        -4.8862         1.6550       132.7020        43.1569        28.2083       109.6513        -2.3650        45.1649
         4.7264       262.3200         0.0039        -1.7933        -1.0441       -26.3936        -9.7437        -6.3610       -21.0033         1.6009        -8.5878
         4.7277       262.2500         0.0195       -36.2712       -13.4118         0.1067       -16.5254       -10.1289       -43.5170         9.3354       -14.7702
         4.7289       262.1800         0.0023        -0.0062        -0.8842       -27.5123        -9.4675       -20.6780        -5.2689        -0.1487        -8.6985
         4.7338       261.9100         0.2394      -115.3062      -215.2267        -0.7021      -110.4117      -113.4578      -106.4210      -121.1806      -113.6864
         4.7387       261.6400         0.0010         4.1018         2.0404        -1.8341         1.4360        -0.4118        -0.5460         6.5382         1.8601
         4.7396       261.5900         0.0182        -0.1570         0.0634      -146.2860       -48.7932      -150.1992       -11.3177        -0.0331       -53.8500
         4.7412       261.5000         0.0105       -17.9590       -27.5349        12.3743       -11.0399         9.7724       -28.7236       -14.4303       -11.1272
         4.7417       261.4800         0.0189        -0.1128        -3.9088       130.9667        42.3150       119.1290        20.1737        -2.6969        45.5353
         4.7461       261.2400         0.0060         6.1393        49.7857        -2.2716        17.8845        26.2774         1.2371        29.7687        19.0944
         4.7492       261.0600         0.0051         1.4673        -2.4713       -34.8396       -11.9479         9.5972       -51.5263         0.9395       -13.6632
         4.7530       260.8500         0.0026         5.5171        -0.6696       -35.1286       -10.0937       -34.5149         9.7112         4.2581        -6.8485
         4.7546       260.7700         0.0326        78.1450       -12.8020         2.9133        22.7521       -12.6074        12.8425        64.5562        21.5971
         4.7550       260.7400         0.0430       102.9443       -17.4655        -1.1818        28.0990       -20.9678        14.0348        84.6867        25.9179
         4.7605       260.4400         0.0021         1.0019         1.1140        -6.1812        -1.3551         3.6707        -5.7648        -2.1757        -1.4233
         4.7624       260.3400         0.0730        56.6731       -62.4538        -0.1507        -1.9771        93.8024        49.5160      -154.2037        -3.6284
         4.7647       260.2100         0.0132        -0.5071         0.0105         8.4686         2.6573       -56.8126        65.6916        -0.4469         2.8107
         4.7660       260.1400         0.0039        29.5432        -4.7373        -0.1740         8.2107       -11.9151        10.4215        19.5620         6.0228
         4.7679       260.0400         0.0326        57.7031        51.0765        -0.0751        36.2348        75.2656        24.6555         2.9824        34.3012
         4.7708       259.8800         0.0004         1.2495        -0.0368        -0.2199         0.3309        -2.2161         2.9347         0.3089         0.3425
         4.7713       259.8500         0.0259       -45.3548       -86.0247         0.1039       -43.7586       -75.3086       -36.5747       -21.1833       -44.3555
         4.7760       259.6000         0.0001        -4.7128        -2.4553         0.1417        -2.3421         3.1058        -2.9312       -10.8604        -3.5619
         4.7778       259.5000         0.0009         2.6928        -1.4180         2.6751         1.3166         0.5172         2.9691         0.4748         1.3204
         4.7829       259.2200         0.0057        -0.9554        -1.6845      -126.2013       -42.9471       -69.6872       -68.0819        -1.1503       -46.3065
         4.7837       259.1800         0.0098         6.5900       -13.2142       -40.4102       -15.6781       -28.4459       -20.8939        -3.4398       -17.5932
         4.7867       259.0200         0.0016        -0.2202        -0.2571         2.9860         0.8362        -8.9107        10.6237         0.2424         0.6518
         4.7886       258.9100         0.0163        18.6964        -0.0172       -63.8873       -15.0694        25.7670       -80.6563         7.6194       -15.7566
         4.7907       258.8000         0.1906       225.1379         1.9741        -3.6224        74.4965       -25.5123       113.1572       121.9872        69.8774
         4.7940       258.6200         0.0063       -19.4566         2.0130        -2.4604        -6.6347       -37.5483       -21.2570        39.1814        -6.5413
         4.7953       258.5500         0.0063        -9.8314         0.7221       -25.7513       -11.6202        -6.4287       -23.0003        -0.5459        -9.9916
         4.7984       258.3900         0.0897      -245.5037       -69.1850        -0.2566      -104.9818       -40.4416       -96.2816      -160.6304       -99.1179
         4.8025       258.1700         0.0402        15.6107       140.3151         1.2530        52.3929        89.9720         5.4376        73.1702        56.1933
         4.8032       258.1300         0.0048        -3.1388         1.9042        25.6214         8.1289        -8.9452        35.4143         1.1458         9.2050
         4.8107       257.7300         0.0010         0.7165         0.3567         8.0502         3.0411         8.5409         1.0451         2.1424         3.9095
         4.8129       257.6100         0.0038       -13.0921        15.0595        -0.9711         0.3321       -10.0743        -5.8921        20.0743         1.3693
         4.8154       257.4700         0.0087         2.0360      -117.8840        -1.2683       -39.0388       -46.9317         0.4103       -68.2972       -38.2729
         4.8166       257.4100         0.0046         0.1334        -1.9021       -44.3379       -15.3689       -52.5425         8.6472        -0.7429       -14.8794
         4.8208       257.1900         0.0003        -0.1413        -2.7776        -4.0880        -2.3356       -12.3064         1.8094        -1.9774        -4.1581
         4.8265       256.8800         0.0057         0.1460        -0.4516        15.1984         4.9643        81.5651       -65.0728         1.0342         5.8422
         4.8268       256.8700         0.0016         3.4287       -13.0218         4.4681        -1.7083         6.9001        -6.9168         3.0431         1.0088
         4.8316       256.6100         0.0073       -42.4195        23.7847        -0.7295        -6.4548        20.8098       -13.8376       -19.4921        -4.1733
         4.8342       256.4700         0.0213       -40.6631        -2.4788        -0.2412       -14.4610        -8.4323       -11.4438       -22.4083       -14.0948
         4.8351       256.4300         0.0014         0.3183         2.1965       -13.8886        -3.7913         0.5690       -11.8473         1.7667        -3.1705
         4.8381       256.2600         0.0146       -36.5648        -2.7978        -6.0469       -15.1365       -23.6569       -38.9489        16.0227       -15.5277
         4.8387       256.2400         0.0062        -0.6896        -0.0531       -26.0739        -8.9388         1.9376       -29.6547         0.4866        -9.0768
         4.8395       256.1900         0.0146        -2.6785        -0.3308       -86.4273       -29.8122      -133.3612        37.8577         1.4794       -31.3414
         4.8469       255.8000         0.0590         6.6044        15.8315        -0.4067         7.3431         4.0749       -43.7690        56.8153         5.7071
         4.8508       255.6000         0.0070        -1.0401         1.5529       -65.3989       -21.6287       -75.2208        14.3249        -0.1329       -20.3429
         4.8535       255.4600         0.0010        -7.3493        12.6339         5.4893         3.5913         4.9642        -0.1398         1.1369         1.9871
         4.8540       255.4300         0.0017       -10.3518        12.2129       -17.1661        -5.1016        -9.8430        -6.6328        -1.8008        -6.0922
         4.8577       255.2300         0.0041        -0.4316       -25.5211        -2.9450        -9.6326       -20.1684         6.7352       -16.7711       -10.0681
         4.8578       255.2300         0.0040         2.7616       -35.9597        -0.9546       -11.3842       -20.0732         6.3931       -22.0017       -11.8939
         4.8622       254.9900         0.0325        28.5492         0.1139         2.7407        10.4679        18.4128         9.7420         1.2910         9.8153
         4.8642       254.8900         0.0239         1.2682        -0.0828       152.1524        51.1126        21.8934       135.8113         0.2502        52.6516
         4.8658       254.8000         0.0340        42.7093         8.8867         0.5021        17.3660       -21.2270        19.0260        52.9297        16.9096
         4.8674       254.7200         0.0115         0.4656         0.0785      -130.8557       -43.4372        10.7309      -152.0340         0.0268       -47.0921
         4.8718       254.5000         0.0124         0.2904        -0.0149       -33.8006       -11.1750        11.6116       -44.4366        -1.1224       -11.3158
         4.8725       254.4600         0.0074        -4.2041       -99.8908         0.6994       -34.4652       -67.3275        -5.1274       -40.3292       -37.5947
         4.8760       254.2800         0.0018         5.3920       -24.2732        18.4934        -0.1293       -15.7440        20.3778         1.3743         2.0027
         4.8764       254.2500         0.0054        -0.6976        -3.6959        67.0319        20.8795        -0.3003        65.5836        -0.1717        21.7039
         4.8800       254.0600         0.0010         0.7014         0.3591         0.4134         0.4913        -4.8717         6.7688        -0.0292         0.6227
         4.8805       254.0400         0.0283       106.4095       -35.5865        -0.5479        23.4250       -27.3564        56.2857        30.6933        19.8742
         4.8872       253.6900         0.0005        11.6428        -2.8225         0.2044         3.0083         1.1974         4.4496         6.4238         4.0236
         4.8888       253.6100         0.0678       -48.5915        85.9975         0.4328        12.6129       174.6691       -35.3353       -94.4569        14.9589
         4.8903       253.5300         0.0057        -1.1715         1.6117        11.9715         4.1373        11.8873         6.4686        -4.7913         4.5215
         4.8950       253.2900         0.0031        -0.1301        -0.1793       -30.9257       -10.4117       -93.2766        58.4358        -0.0078       -11.6162
         4.8962       253.2200         0.0008       -15.6377        -7.2010        -0.3150        -7.7179        -8.2741       -10.7989        -1.0217        -6.6982
         4.8993       253.0700         0.0174        -3.1603        -3.4793      -122.2073       -42.9490      -116.6519       -20.4725        -1.4956       -46.2067
         4.9015       252.9500         0.0557        43.2563       -12.3758        -1.5261         9.7848         2.8054        28.8747        -6.2881         8.4640
         4.9039       252.8300         0.0084        -2.1907         1.0531       -87.1755       -29.4377       -74.8420       -24.0264        -1.1082       -33.3255
         4.9057       252.7400         0.0731      -130.1789       -20.7171        -3.4745       -51.4568        -8.8963       -46.1695       -91.2854       -48.7837
         4.9096       252.5300         0.0028         0.5247        -1.3688        -8.4873        -3.1105       -12.0405         1.5137        -0.4859        -3.6709
         4.9102       252.5000         0.0259       -15.8645        44.1647         0.2378         9.5127       -43.0672       -14.5504        86.2172         9.5332
         4.9129       252.3700         0.0232        -1.7400         3.3681      -194.1044       -64.1588      -234.4827        38.5398         0.9933       -64.9832
         4.9143       252.2900         0.0014         0.6445         0.0273        12.9862         4.5527         5.3110         8.5974         0.5301         4.8128
         4.9166       252.1700         0.0022       -10.1511        -6.1193         1.7423        -4.8427        -2.9798        -7.9809         0.0219        -3.6463
         4.9188       252.0600         0.0156       113.5771        97.5592         0.6761        70.6041        63.4029        34.7999       108.1988        68.8005
         4.9214       251.9300         0.0013        -0.7586        -9.5465        25.7502         5.1483        16.4847        -7.7147         1.6642         3.4781
         4.9227       251.8600         0.0561        -9.1357       -17.8599        -1.8582        -9.6179      -168.4395        -6.8205       147.2010        -9.3530
         4.9265       251.6700         0.0160        -1.2199        -0.7108       -54.0775       -18.6694       -34.5864       -23.4726        -0.3947       -19.4846
         4.9277       251.6100         0.0007         0.6973        -0.5236        -2.4267        -0.7510         6.7107       -10.0154         0.0686        -1.0787
         4.9292       251.5300         0.0580       -60.4889        -2.1071        -1.6234       -21.4064        -1.7440       -43.0295       -14.3397       -19.7044
         4.9364       251.1600         0.0037        10.3825        -2.2908        14.0520         7.3812         3.4581        25.2187        -4.5149         8.0539
         4.9375       251.1100         0.0011         1.2038         0.6015        10.6148         4.1400         7.2881         9.0142        -1.5471         4.9184
         4.9386       251.0500         0.0105         1.5845        -1.3686        52.5837        17.5999        31.0980        23.4377        -0.5077        18.0093
         4.9415       250.9000         0.0117        32.6342        10.5661        -0.6765        14.1746        14.1138        44.6865       -15.6467        14.3845
         4.9450       250.7300         0.0255         1.2938         4.0421        -0.2719         1.6880        44.4487         4.3507       -43.6838         1.7052
         4.9493       250.5100         0.0020         0.1376        -5.8075       -37.7867       -14.4855       -48.3230         2.5351         3.8546       -13.9778
         4.9522       250.3600         0.0320        -9.6992      -146.0753        -4.0494       -53.2746      -239.4797        15.5575        56.5870       -55.7784
         4.9535       250.3000         0.0421       -31.8953       -13.3173       -12.3880       -19.2002        -7.5692       -62.9448        15.1805       -18.4445
         4.9540       250.2700         0.0377       -50.1672        18.4784       -24.0118       -18.5669        42.9274       -88.9421        -7.5192       -17.8446
         4.9561       250.1600         0.0428         8.3987      -112.3381         0.3117       -34.5426       -17.2244         7.2036       -95.9237       -35.3148
         4.9598       249.9800         0.0015        -0.7338        -2.9802         6.6545         0.9802        13.6537        -8.9389        -0.1776         1.5124
         4.9648       249.7300         0.0276       -25.7871      -128.8702         0.5699       -51.3625      -113.5012       -10.8842       -37.2915       -53.8923
         4.9671       249.6100         0.0175         0.4421        -5.4769        46.1320        13.6990        84.9992       -40.3087        -2.9207        13.9233
         4.9716       249.3800         0.0897         5.5736       -87.1647         1.9471       -26.5480         7.7495       -19.3278       -71.9900       -27.8561
         4.9725       249.3400         0.0061        -0.3421        -0.1234        -4.5402        -1.6686         0.8257        -5.6147        -0.5318        -1.7736
         4.9738       249.2800         0.0219         1.1055        -4.4700       152.6672        49.7676       146.2679        13.3929        -3.3786        52.0941
         4.9796       248.9800         0.0096       -29.4446       -75.4556         0.4417       -34.8195      -132.4528       -13.3211        41.5186       -34.7518
         4.9821       248.8600         0.0247         2.1719        -0.6727        75.8475        25.7823       106.4011       -34.4069         5.3528        25.7823
         4.9827       248.8300         0.0079        28.7852         7.1428        10.6476        15.5252         7.3509         6.4627        29.9492        14.5876
         4.9883       248.5500         0.0544        41.3795       -10.7519         6.4382        12.3553        20.5048        -7.9896        22.0598        11.5250
         4.9887       248.5300         0.0086         4.3421        -3.5396        77.1378        25.9801        68.5755         5.9657         3.8704        26.1372
         4.9909       248.4200         0.0297         1.7432       109.1940         4.5078        38.4816        78.2445        15.5369        26.8264        40.2026
         4.9933       248.3000         0.0012         0.5717         0.4642        -3.8858        -0.9500        -9.8658         7.3761         0.1111        -0.7929
         4.9967       248.1300         0.0057         0.1900        -2.1840        20.5690         6.1917         5.3799        14.1647         0.1308         6.5585
         4.9980       248.0700         0.0863        34.3112       -48.1277         2.1374        -3.8930       -16.1712       -19.7449        19.1633        -5.5843
         5.0002       247.9600         0.0019         1.3032       -12.5440         0.0771        -3.7212       -23.0338         0.0524         9.8568        -4.3749
         5.0024       247.8500         0.0216        -1.7112        -3.2464       -30.8197       -11.9258       -41.4143         6.9926        -1.5981       -12.0066
         5.0088       247.5300         0.0026         9.4105       -25.2657        18.2764         0.8071         8.3065         8.4610        -5.6331         3.7115
         5.0100       247.4700         0.0121        50.3345      -150.0712         6.5126       -31.0747       -94.2446        27.7939       -34.5990       -33.6832
         5.0133       247.3100         0.0011        -0.2612        -3.0721        25.5642         7.4103        -1.0503        28.9774        -1.0706         8.9521
         5.0146       247.2500         0.0397       -21.8489      -273.2449        -0.7990       -98.6309      -222.4442        -8.6550       -75.8432      -102.3141
         5.0157       247.1900         0.0077        -1.0231        -3.4418        72.8010        22.7787        11.3955        53.9127        -0.5673        21.5803
         5.0188       247.0400         0.0192       107.5878       -21.3402         1.7230        29.3235       -11.6863        36.6858        57.0300        27.3432
         5.0202       246.9700         0.0172        11.8691         1.2146        38.6007        17.2281        22.6311        20.8533         7.9804        17.1549
         5.0227       246.8500         0.0288        14.7577         0.0855        32.7638        15.8690       170.0409      -133.3026        10.0832        15.6072
         5.0241       246.7800         0.0283        75.1535        10.0030         6.4604        30.5389        38.8455         5.3822        43.5751        29.2676
         5.0262       246.6700         0.0498       -26.3898      -195.0008         0.2358       -73.7183      -262.0608       -16.1326        48.9352       -76.4194
         5.0312       246.4300         0.1075        29.3788       -64.4747        -0.0627       -11.7195       -12.8847         7.7606       -32.9175       -12.6805
         5.0334       246.3200         0.0053         2.5002         1.0035         1.5513         1.6850       -39.1513        43.3028         0.8185         1.6567
         5.0393       246.0300         0.0268       -12.6957       113.2670        -5.6112        31.6534       144.8763        -7.8184       -37.2145        33.2812
         5.0397       246.0100         0.0484       -22.7300      -101.3028        -5.6618       -43.2315      -114.5523       -18.1652         4.1798       -42.8459
         5.0414       245.9300         0.0151        -3.0652        -1.2262       -84.6813       -29.6576       -93.9077         8.4906        -0.8474       -28.7549
         5.0460       245.7100         0.0190        -6.8905       -40.0995        -0.0453       -15.6784       -29.2441        12.9411       -30.7969       -15.7000
         5.0481       245.6100         0.0095        11.9443        -8.0132        -1.3120         0.8730       -19.4809         4.4976        16.6095         0.5421
         5.0485       245.5800         0.0053         0.1857        -2.1690        -8.6849        -3.5561       -32.8736        20.1362         2.0715        -3.5553
         5.0540       245.3200         0.0001         0.0436        -0.4341         0.1643        -0.0754        -1.9592         1.7303         0.0980        -0.0437
         5.0560       245.2200         0.0612        46.3938        51.1864        -0.0953        32.4950         7.5901        61.7413        22.5170        30.6161
         5.0590       245.0800         0.0064        -1.8588        -8.6354        -4.9516        -5.1486        -5.3149        -3.0505        -7.0754        -5.1469
         5.0596       245.0500         0.0147        18.5909        11.8287         0.4796        10.2997        32.6544         8.9884       -12.5922         9.6835
         5.0609       244.9900         0.0064        -5.7671       -73.7126        -0.2887       -26.5894       -73.7820        -1.6974         0.5490       -24.9768
         5.0636       244.8600         0.0013         5.1262        -1.0488        28.1932        10.7569        14.4620         7.8546         2.6832         8.3332
         5.0646       244.8100         0.0288       125.2653        -5.6877         0.7152        40.0976       -22.6568        39.6266        94.7146        37.2281
         5.0672       244.6800         0.0040        -1.2027         0.7407       -59.5462       -20.0027       -63.1415         8.2337        -0.3839       -18.4305
         5.0696       244.5600         0.0141        -2.8438        -2.2793        -0.1489        -1.7574         2.4187        -6.8824        -2.0568        -2.1735
         5.0720       244.4500         0.0014        -0.2368        -0.8967        -7.0275        -2.7203        -8.3145         1.5949        -0.9581        -2.5592
         5.0758       244.2600         0.0083         2.1199        -1.9799       -27.4376        -9.0992       -26.0189         3.0186        -2.5002        -8.5002
         5.0766       244.2300         0.0824        81.3525        15.9815        -2.2321        31.7007        13.4154        53.1185        36.6251        34.3863
         5.0804       244.0400         0.0040        -9.4736       -24.9685         4.9425        -9.8332       -22.2462        -9.6169         0.5037       -10.4532
         5.0822       243.9600         0.0112       -71.2031       -33.4783        -1.2975       -35.3263       -38.0794       -24.3094       -43.3414       -35.2434
         5.0853       243.8100         0.0674        42.8615      -110.1209         1.4830       -21.9255        20.4543        33.5745      -125.9699       -23.9804
         5.0906       243.5500         0.0125        10.0672         0.2470        66.7330        25.6824       143.0169       -67.5841         4.9452        26.7926
         5.0911       243.5300         0.0065        32.0680        -3.9145        15.0336        14.3957        40.4390        -8.5312         8.1963        13.3680
         5.0934       243.4200         0.0114        -0.1046        -0.6482        27.8551         9.0341       -55.5536        84.0218        -0.9052         9.1877
         5.0956       243.3200         0.0197         0.6694         0.5933       101.3471        34.2033        41.1235        59.9427         4.5070        35.1910
         5.0960       243.3000         0.0261         4.7454         4.5655        46.2011        18.5040        23.6746        19.3718        14.3249        19.1238
         5.1024       242.9900         0.0164       -19.2118         1.1912         2.0127        -5.3360        -2.2280       -11.0461        -0.7742        -4.6828
         5.1026       242.9800         0.0418       -13.3275         8.4360         0.2254        -1.5553        23.9143       -33.2788         7.8574        -0.5024
         5.1065       242.8000         0.0116        78.7522        64.2668         0.5908        47.8699        62.8908        22.8127        47.4157        44.3731
         5.1087       242.6900         0.0107         0.8061         1.1604       -62.6096       -20.2144       -50.8474        -9.8688         0.5110       -20.0684
         5.1116       242.5600         0.0085         0.0233         0.3438        -6.4189        -2.0173       -10.4154         4.2419        -0.0239        -2.0658
         5.1143       242.4300         0.0003         1.1917        -5.0883        17.8186         4.6407        21.7474         3.6913        -0.6222         8.2722
         5.1149       242.4000         0.0029        17.9347       -10.6558         2.3398         3.2063        -5.3785         8.5439         5.6978         2.9544
         5.1175       242.2700         0.0189        65.4386        17.8339        -0.2304        27.6807         4.1364        28.0898        48.5846        26.9369
         5.1187       242.2200         0.0011        -1.1941        29.4083         0.1689         9.4610        20.0950        -1.3203        16.4800        11.7516
         5.1192       242.2000         0.0068         0.4433         4.2327       -47.3440       -14.2227       -21.1479       -16.9520         0.9538       -12.3821
         5.1239       241.9700         0.0049         0.8291         0.8669         5.4746         2.3902        -8.3304        15.2548         0.2098         2.3781
         5.1259       241.8800         0.0095        22.1805       -99.8151         6.0735       -23.8537       -17.3855         0.5051       -60.2803       -25.7202
         5.1290       241.7300         0.0059         0.9708        -5.2698        47.0471        14.2494        77.6646       -31.2788        -3.9215        14.1548
         5.1298       241.7000         0.0574        88.1569        19.3963         1.3195        36.2909        16.9626       119.3104       -33.2073        34.3553
         5.1353       241.4400         0.0057        -2.1602         1.5761        94.1214        31.1791        65.8020        28.0940         0.5786        31.4916
         5.1358       241.4100         0.0045        -2.2545        17.4410        18.3293        11.1719        28.7451        -3.4080         7.5873        10.9748
         5.1370       241.3600         0.0029         0.0107        -0.2228        82.5104        27.4328        81.8662         8.7888        -0.9465        29.9028
         5.1404       241.1900         0.0172         0.0043        -0.0193        81.2850        27.0900        83.4664        -2.6008        -0.0343        26.9438
         5.1433       241.0600         0.0169       -13.4081       -36.1450         0.4981       -16.3517        -3.7396        -9.4274       -28.2607       -13.8092
         5.1447       240.9900         0.0009         0.5890        18.8306        -0.7475         6.2240         8.4471         1.3471        10.4131         6.7358
         5.1472       240.8800         0.0013         0.5375        -0.3530        22.7321         7.6389        -6.1582        24.8431        -0.2573         6.1425
         5.1492       240.7800         0.0087        -1.1664        58.5562         3.3443        20.2447        93.9843         2.3892       -35.5820        20.2638
         5.1516       240.6700         0.0158        -0.1517         1.8217       213.8175        71.8291       124.1071        89.8909        -0.4793        71.1729
         5.1530       240.6000         0.0015        -0.2329        -0.7223       -13.2677        -4.7410       -13.8839        -1.9541        -1.1641        -5.6674
         5.1553       240.5000         0.0014        -5.7809       -19.0819         5.2956        -6.5224         9.7326        -1.5484       -41.4140       -11.0766
         5.1561       240.4600         0.0282        -0.1075        -2.2655         5.6136         1.0802       -96.3474       104.4959        -5.0248         1.0413
         5.1588       240.3300         0.0319       -38.0074        65.9021        -2.4615         8.4777       101.8074       -32.9873       -42.6116         8.7362
         5.1630       240.1400         0.0040        -6.5201        -6.5306       -20.2277       -11.0928       -48.5860        15.2393         0.7239       -10.8742
         5.1637       240.1100         0.0193       -49.3174       -29.4740        -3.9456       -27.5790       -37.3054       -45.7542         4.0130       -26.3489
         5.1695       239.8400         0.0087        20.9769       -47.9212        -0.0018        -8.9820       -22.9986        13.8518       -21.2851       -10.1440
         5.1717       239.7400         0.0097        -0.4083        -0.4339        99.6770        32.9449        83.6987        15.5396         0.0711        33.1031
         5.1721       239.7200         0.0093         0.0964        -0.0309       -11.0663        -3.6669         1.9804       -14.5937         0.2630        -4.1168
         5.1782       239.4400         0.0430       -87.5469       -45.3671         0.5493       -44.1216       -35.6939       -33.2499       -59.9709       -42.9715
         5.1807       239.3200         0.0046        -4.0440        16.6709         6.0331         6.2200        13.4646        -0.9987         9.5818         7.3492
         5.1819       239.2600         0.0051        -3.0966        -1.0601        17.4988         4.4474         9.5903         4.7385        -1.8750         4.1513
         5.1838       239.1800         0.0070         4.4602         2.2768        94.2330        33.6566        84.5884        11.6544         5.2724        33.8384
         5.1856       239.0900         0.0020        -0.0726         0.4561         2.7832         1.0555        29.6037       -26.4360         0.1067         1.0915
         5.1872       239.0200         0.0105        31.4483        -7.4431         4.0804         9.3619        -6.1570         4.3721        28.0413         8.7521
         5.1896       238.9100         0.0222        55.3689        29.6589         1.9860        29.0046        47.6577         5.4737        27.3930        26.8415
         5.1912       238.8300         0.0690        17.3189        -7.4289        -5.0614         1.6095       -24.3013        -8.3746        34.6955         0.6732
         5.1917       238.8100         0.1011         4.8649       -38.3649        -5.1167       -12.8722       -85.7283       -10.4803        55.8103       -13.4661
         5.1950       238.6600         0.0123        -3.3142         0.5991        29.3322         8.8724        20.5058         8.2056        -1.5486         9.0543
         5.1969       238.5700         0.0253         8.5037       -46.8452         0.7259       -12.5385       -66.4934         6.0797        24.1333       -12.0934
         5.2011       238.3800         0.0002        -0.4459         0.0515        -9.7315        -3.3753       -10.1734         0.9706        -0.2654        -3.1561
         5.2045       238.2300         0.0077       -37.7075         3.9211         0.0880       -11.2328        -1.3815       -15.6309       -14.7092       -10.5739
         5.2077       238.0800         0.0049         4.7504         0.3804         6.6694         3.9334        11.8727        -5.6014         5.1335         3.8016
         5.2087       238.0300         0.0174        26.2042       103.9210        -0.5539        43.1904       116.5590        -4.3056        15.6376        42.6303
         5.2131       237.8300         0.0148        -0.2631         2.9038      -136.9204       -44.7599      -142.1934        12.0654        -0.5091       -43.5457
         5.2159       237.7100         0.0127        -0.1305        -0.0391        17.5502         5.7936       -24.1519        40.5240        -0.1406         5.4105
         5.2175       237.6300         0.0094      -110.1761         1.0078         0.0581       -36.3701         0.7082       -50.8493       -53.9852       -34.7087
         5.2184       237.5900         0.0125       -19.9601       -37.7820         0.0048       -19.2458       -73.6052       -20.5758        36.9346       -19.0821
         5.2206       237.4900         0.0018        -0.6798         0.3499       -21.2292        -7.1864       -19.8899        -0.6072        -0.5225        -7.0065
         5.2235       237.3600         0.0276      -104.4090        65.3380        -1.3415       -13.4708        90.7686       -54.6367       -69.5174       -11.1285
         5.2264       237.2300         0.0026        -0.0290         2.5937        -9.1457        -2.1937        -0.5088        -5.3371        -0.8182        -2.2214
         5.2279       237.1600         0.0054        -4.6931       -23.0980        -0.0136        -9.2682       -47.1811       -12.5693        30.9581        -9.5974
         5.2303       237.0500         0.0316        -9.3309       135.0368        -1.0843        41.5406       174.2583        -3.5262       -52.7224        39.3366
         5.2334       236.9100         0.0018         0.3275        11.8513        -2.4526         3.2421        12.2797        -0.9643        -2.8217         2.8312
         5.2371       236.7400         0.0202        23.2645       115.2656         1.7298        46.7533       123.0947        19.2680         5.5740        49.3122
         5.2378       236.7100         0.0058         0.1642         0.0372        12.3978         4.1997       -16.1139        27.6894         0.0128         3.8628
         5.2391       236.6500         0.0124       -24.5352         1.3643         7.0640        -5.3690         5.9989        23.2466       -45.3820        -5.3789
         5.2401       236.6100         0.0080        -3.0247        -0.2238       162.1706        52.9740       105.1447        40.9526        -4.2592        47.2794
         5.2450       236.3800         0.0112       -21.8304        26.3916        -0.1912         1.4566        15.8105       -33.7982        24.8394         2.2839
         5.2461       236.3400         0.0096         0.0073        -0.1577       168.0868        55.9788       161.9255        26.8165        -0.2648        62.8257
         5.2467       236.3100         0.0126       -15.8304        -4.9655         0.0709        -6.9083       -22.5267       -10.8104        12.0130        -7.1080
         5.2495       236.1800         0.0154        -1.5569         0.0048        69.2903        22.5794        93.6749       -26.1776        -0.0328        22.4882
         5.2560       235.8900         0.0108         0.0178         0.0518        27.4000         9.1565        45.2125       -14.7176        -0.0754        10.1398
         5.2580       235.8000         0.0077       -42.6145        16.5207         0.8721        -8.4072         8.0269       -22.5500       -10.3915        -8.3048
         5.2586       235.7700         0.0007        -1.9504         0.7566       -14.7359        -5.3099        -3.5989        -3.8535        -0.3647        -2.6057
         5.2626       235.6000         0.0028        -2.3995       -12.2859        -7.7308        -7.4721       -10.4959        -1.2950        -4.2951        -5.3620
         5.2636       235.5500         0.0183        -3.5696         2.2112       -18.0795        -6.4793        14.7082       -10.0957       -22.4913        -5.9596
         5.2642       235.5200         0.0243        -7.3882        14.3342       -17.2973        -3.4504        30.7197       -12.1354       -24.5285        -1.9814
         5.2703       235.2500         0.0202       -42.5411       -26.0118        -1.8037       -23.4522       -27.6337        -9.1134       -27.5299       -21.4257
         5.2706       235.2400         0.0051       -12.2266        -4.0858         7.3498        -2.9875         0.8531        -7.6913        -3.7850        -3.5411
         5.2730       235.1300         0.0420        -2.2542        -0.1760       175.7994        57.7897       257.6867       -84.3689        -1.4209        57.2989
         5.2763       234.9800         0.0132       -33.4235        52.0944        -0.2805         6.1301        70.5589        -5.3092       -41.5176         7.9107
         5.2770       234.9500         0.0430        26.2613       -19.2041         0.8082         2.6218       -92.0001        53.5100        45.8036         2.4378
         5.2799       234.8200         0.0120        -0.4807         2.7695        82.5460        28.2782        94.2378        -7.1699         1.5384        29.5354
         5.2820       234.7300         0.0052        -0.5009        14.0400         4.8916         6.1435       -14.0915        -0.4944        34.9655         6.7932
         5.2898       234.3800         0.0697      -124.0019         7.2556       -46.3810       -54.3758       -16.3751      -107.4635       -29.9486       -51.2624
         5.2904       234.3600         0.0687       -51.1630        -0.4483      -120.7569       -57.4561       -84.2481       -71.4737       -11.1902       -55.6374
         5.2920       234.2900         0.0196        -3.3409         0.2288       -28.6463       -10.5861        -0.4205       -30.5735        -0.8350       -10.6097
         5.2927       234.2600         0.0052        -3.7974         0.0965       -49.5757       -17.7589       -55.5765         1.5526        -0.5956       -18.2065
         5.2963       234.0900         0.0318         8.0155       107.8760        -0.0016        38.6300       169.4230         6.5566       -66.9612        36.3395
         5.2986       233.9900         0.0195         7.5751        -4.5608       -16.7992        -4.5949       -25.4878        17.4831        -6.1931        -4.7326
         5.2998       233.9400         0.0212         1.8173        -2.9209        -4.5651        -1.8896       -12.4232        11.9992        -4.9420        -1.7887
         5.3028       233.8100         0.0103         0.0027        -0.0603       -91.5498       -30.5358      -160.9121        71.2628        -0.0367       -29.8953
         5.3047       233.7200         0.0159        15.9591       -33.0610         1.5454        -5.1855        18.2943         7.1965       -42.2915        -5.6002
         5.3072       233.6100         0.0009        -8.7673        31.8947         0.2815         7.8030        24.6789        -4.6582         1.5968         7.2058
         5.3080       233.5800         0.0037        -1.5238        37.1242       -13.5390         7.3538        14.1826         3.9868         5.6467         7.9387
         5.3107       233.4600         0.0211         7.3337        28.7578         9.6138        15.2351       -26.7228         6.9209        66.3736        15.5239
         5.3122       233.4000         0.0238       102.6436        24.6953        27.3515        51.5635         2.5642        80.8288        65.0640        49.4856
         5.3127       233.3700         0.0099        13.6888        -1.6797       109.5127        40.5073        52.0968        72.0973         2.4926        42.2289
         5.3167       233.2000         0.0095         0.7000        -0.1821      -150.8109       -50.0977      -153.9939        -3.1328        -0.1160       -52.4142
         5.3193       233.0900         0.0036        -4.1051        -8.4722        -1.3948        -4.6574         8.0050        -0.1435       -23.7857        -5.3081
         5.3210       233.0100         0.0003         0.9643         0.0437        -4.7320        -1.2413        -4.3898        -1.8690         0.1807        -2.0260
         5.3260       232.7900         0.0256       -13.5249       -28.0342         1.2797       -13.4265       -21.2814        -1.3397       -13.9498       -12.1903
         5.3288       232.6700         0.0066         3.1624        -0.2260       -13.6740        -3.5792        20.3740       -28.6921        -1.7862        -3.3681
         5.3309       232.5800         0.0019        -0.3380        -1.1267         9.8395         2.7916        39.3627       -28.7344        -1.1507         3.1592
         5.3316       232.5400         0.0097        23.4811        12.7305         0.0396        12.0837        32.6029         9.1208        -6.3508        11.7910
         5.3349       232.4000         0.0034         0.8741         1.4374        18.7859         7.0325        11.2493         8.4467        -0.3418         6.4514
         5.3369       232.3200         0.0277        31.6231        11.9265         0.8023        14.7840         9.6393        22.0043         9.0776        13.5738
         5.3392       232.2200         0.0134         0.4965        -0.1575        14.6023         4.9805       -66.2397        81.8027        -0.4409         5.0407
         5.3396       232.2000         0.0199       -39.3126        -4.9087        -0.6114       -14.9442        82.2703       -20.7262      -104.9545       -14.4701
         5.3410       232.1400         0.0051        -2.7968        -0.3038       -22.0485        -8.3830         4.6710       -24.7766        -3.7751        -7.9602
         5.3427       232.0600         0.0021         4.6630        18.2007        -4.8840         5.9932        -3.4796         3.8792        20.0254         6.8083
         5.3434       232.0300         0.0003         0.6945        -0.6228        12.2135         4.0951         9.0404         5.8507         0.4992         5.1301
         5.3448       231.9700         0.0250       -65.3886         5.8166        21.1951       -12.7923        42.4435       -49.4245       -30.1492       -12.3767
         5.3463       231.9100         0.0274        -8.2222         3.2778       172.2248        55.7601       238.5010       -64.2264        -2.0201        57.4182
         5.3487       231.8000         0.0034        -0.1135       -18.6662         6.4779        -4.1006       -18.2279        -1.0385         3.2673        -5.3330
         5.3521       231.6500         0.0186       -14.5813        23.9888         0.1696         3.1924         8.3901        -8.3826        14.3321         4.7799
         5.3558       231.5000         0.0015        -0.7110         0.2496       -63.7207       -21.3940       -46.1789        -8.0600         0.4987       -17.9134
         5.3579       231.4000         0.0086         3.1288        55.2497        -0.7093        19.2230       100.8142         4.8099       -50.7801        18.2813
         5.3642       231.1300         0.0389        -6.5640        74.0858        -0.4779        22.3480        74.4665         6.0577       -17.3331        21.0637
         5.3666       231.0300         0.0045        -0.3011         1.1356       -22.7370        -7.3008       -15.5565        -5.8430        -0.1799        -7.1931
         5.3703       230.8700         0.0005        -0.0435        16.3269        -3.9400         4.1145         5.4454         5.5791         0.7519         3.9255
         5.3716       230.8100         0.0031         8.4282        47.4709        -0.3922        18.5023        43.2571         1.5074        12.4033        19.0559
         5.3728       230.7600         0.0034        -0.0022        -0.6484      -100.8304       -33.8270      -112.9655         4.6938        -1.1638       -36.4785
         5.3729       230.7600         0.0223        12.7261         4.6006        -4.0648         4.4207         8.9831        -0.3723         3.9409         4.1839
         5.3764       230.6100         0.0173        -6.1684        77.7683       -22.9556        16.2148        62.9503        -8.0027        -9.2454        15.2341
         5.3770       230.5800         0.0136         1.2820        38.5599       -15.7348         8.0357        31.3889        -8.4068        -0.8576         7.3748
         5.3822       230.3600         0.0348        -0.4095        -0.4895      -113.3008       -38.0666      -167.5898        51.1997         0.1210       -38.7564
         5.3846       230.2600         0.0135        31.4992       -25.3306        -3.8018         0.7889       -67.0068        20.8488        41.8789        -1.4264
         5.3864       230.1800         0.0121         5.7841        36.3421        -5.0499        12.3588        13.3453         1.2983        22.1419        12.2619
         5.3872       230.1400         0.0020        -1.8906        10.8215         0.8039         3.2449        10.5914        -1.5549         1.6456         3.5607
         5.3904       230.0100         0.0053        -4.8166         1.6797       -15.6338        -6.2569        13.3711       -26.7964        -4.3652        -5.9302
         5.3910       229.9800         0.0284       -28.8344        88.8984        -1.1907        19.6244       133.9925       -15.7558       -49.8402        22.7988
         5.3934       229.8800         0.0018        -1.1261         5.6860       -47.0372       -14.1591       -41.0405        -2.3929         0.4724       -14.3203
         5.3954       229.8000         0.0153       -60.7310       -20.4679        -3.4361       -28.2117       -17.1738       -37.1149       -22.4175       -25.5688
         5.3976       229.7000         0.0308       -66.5972       -44.4037        -2.1788       -37.7266       -81.2213       -49.4762        21.0963       -36.5337
         5.4000       229.6000         0.0080        -7.8477        -5.2099       -42.1578       -18.4051       -54.3459         1.3801        -0.7807       -17.9155
         5.4035       229.4500         0.0679      -168.3924      -102.3544        -4.3039       -91.6836      -127.4322       -97.3205       -42.1788       -88.9772
         5.4048       229.3900         0.0011        -0.3410        -0.0067        25.8324         8.4949        11.0262        14.1893        -0.1730         8.3475
         5.4066       229.3200         0.0028        -0.7788        -0.2571        -4.1796        -1.7385       -29.8572        24.5551        -0.0962        -1.7994
         5.4132       229.0400         0.0099        12.8124        63.6485         0.0134        25.4914       110.7650         6.8911       -42.7095        24.9822
         5.4149       228.9700         0.0207         1.3636       -10.2765       187.8305        59.6392       211.0631       -21.2021         3.3573        64.4061
         5.4177       228.8500         0.0035         9.1169       -52.0802        -0.8639       -14.6091       -55.6753        -3.1734        19.9615       -12.9624
         5.4186       228.8100         0.0028         1.2176        -8.8868        84.0684        25.4664        43.9051        36.4917         3.0967        27.8312
         5.4193       228.7800         0.0002         0.3620        -4.0685         1.4835        -0.7410        -1.0074         1.2324        -2.0820        -0.6190
         5.4225       228.6500         0.0056        -2.2662         4.7959       -15.3984        -4.2896        21.5959       -34.2414        -0.3371        -4.3275
         5.4242       228.5800         0.0125       -14.5589        34.8629        -2.1081         6.0653        34.4125       -25.7608         9.4137         6.0218
         5.4246       228.5600         0.0032        -2.8700         6.0391        36.5911        13.2534        47.0122        -7.8345        -3.3950        11.9275
         5.4251       228.5400         0.0104        -7.7941        24.1530         6.9107         7.7566        49.8468        -5.8612       -21.5475         7.4794
         5.4320       228.2500         0.0011        -0.1242         4.9846        -3.4161         0.4814        -0.2935         1.6129         1.6883         1.0026
         5.4331       228.2000         0.0097         2.2877        26.1735         0.2594         9.5735        13.6315         1.0053        15.5070        10.0479
         5.4355       228.1000         0.0835        90.0354        18.1082        -2.9920        35.0505         5.1708        74.1006        20.9606        33.4107
         5.4379       228.0000         0.0711        -0.7569         0.0744      -510.5381      -170.4069      -427.4451       -73.6419        -0.6671      -167.2514
         5.4393       227.9400         0.0006         0.3306        -0.2684        -0.7003        -0.2127        -0.7142         0.5153        -0.2064        -0.1351
         5.4423       227.8200         0.0136         4.4662         1.2292        -0.4390         1.7522         3.8391         2.3144         5.2749         3.8095
         5.4466       227.6400         0.0077         0.5381         0.0457        -9.3079        -2.9080       -19.9223        11.1167         0.2926        -2.8377
         5.4511       227.4500         0.0099         4.2740         0.8997       -38.0540       -10.9601       -34.3409        -2.9899         2.3153       -11.6718
         5.4527       227.3800         0.0123        49.5375         8.7347        -6.5825        17.2299         4.3615        18.0034        28.4956        16.9535
         5.4535       227.3500         0.0051        43.2058        13.0769        -4.6250        17.2193        -3.3564        23.2795        26.0096        15.3109
         5.4549       227.2900         0.0191         0.9129        -0.2831      -299.4306       -99.6003      -356.7151        60.7032        -0.0521       -98.6880
         5.4585       227.1400         0.0141        -1.5224         0.7867       120.2419        39.8354       175.1420       -32.6154         0.2348        47.5871
         5.4622       226.9900         0.0281       -11.7043       -27.2587        -1.6842       -13.5491       -43.8490         4.3285        -0.3246       -13.2817
         5.4629       226.9600         0.0143       151.4853        17.3812         2.6795        57.1820        15.7815        77.2072        54.9777        49.3221
         5.4642       226.9000         0.0021        -0.4794         0.0118       -55.9489       -18.8055       -46.3840        -8.4091        -0.1026       -18.2986
         5.4674       226.7700         0.0009        -5.4692        -1.7839         3.6049        -1.2161        -3.2072         2.0437        -4.4906        -1.8847
         5.4688       226.7100         0.0050         1.9623         0.5857        38.1414        13.5631         7.4199        30.6294         1.2661        13.1051
         5.4718       226.5900         0.0008         0.6092        -0.2174       -10.8514        -3.4865       -28.3995        17.5672         0.6019        -3.4101
         5.4722       226.5700         0.0002         0.5466        -1.7047        -1.1901        -0.7827        -5.4948         1.6919         6.0223         0.7398
         5.4756       226.4300         0.0039         0.0197        -0.0855       -65.4640       -21.8433        -8.4126       -49.8641        -0.7933       -19.6900
         5.4794       226.2700         0.0014        -1.1705         5.8877       -22.0850        -5.7893         3.9572       -14.3335        -2.3730        -4.2498
         5.4804       226.2300         0.0195        21.9275       -41.1356         0.5613        -6.2156        28.1067        -5.5239       -39.8071        -5.7414
         5.4827       226.1400         0.0220        31.3407        69.4454        -3.1735        32.5375       113.1159        12.3767       -37.9922        29.1668
         5.4834       226.1100         0.0304         0.1924        -0.1137      -154.9965       -51.6392      -244.3258        88.5853        -0.3873       -52.0426
         5.4858       226.0100         0.0018       -17.2419         1.5396        -0.0019        -5.2347       -13.7246        -9.1858        12.7716        -3.3796
         5.4884       225.9000         0.0011        -1.0684         2.8170        16.5155         6.0880        11.1025        -0.9662         0.2665         3.4676
         5.4895       225.8600         0.0221         7.0935        12.9625        -4.0125         5.3478        28.3168        21.7311       -34.7200         5.1093
         5.4927       225.7200         0.0014         0.3389         0.7707        -9.4309        -2.7737        -9.1174         5.0081        -0.3851        -1.4981
         5.4952       225.6200         0.0482       -46.2943         0.8237        -0.6802       -15.3836         4.0500       -33.2588       -11.8232       -13.6774
         5.4993       225.4600         0.0034       -11.5035         6.3123         0.9000        -1.4304         3.1508        -8.4804         2.7344        -0.8651
         5.4999       225.4300         0.0102        -0.9396        -1.6401       -61.3360       -21.3052       -78.7766        15.7443        -2.1075       -21.7133
         5.5008       225.3900         0.0226         2.1533       -76.6017        -6.7245       -27.0576       -27.6733        13.2366       -66.5973       -27.0113
         5.5020       225.3500         0.0189         0.0755       -15.6200       -14.4600       -10.0015       -27.7526        12.2695       -14.4669        -9.9834
         5.5048       225.2300         0.0004         0.2300         0.2638        -0.6248        -0.0437        -6.9767         6.9156         0.1982         0.0457
         5.5109       224.9800         0.0287        93.7347      -123.2072         0.8860        -9.5288       -74.0310        32.3346         7.7132       -11.3277
         5.5131       224.8900         0.0055        -2.1699         8.8932        30.3919        12.3717        55.2763       -18.5087        -0.2675        12.1667
         5.5142       224.8500         0.0054        -4.4533         8.9209        33.1845        12.5507        58.9863       -21.2956        -0.2375        12.4844
         5.5206       224.5800         0.0106        20.7876       -27.8542         0.0240        -2.3475        -8.5726         5.7882        -5.1692        -2.6512
         5.5211       224.5600         0.0137        -1.3446       219.3141         2.9996        73.6564       122.8350       -14.6770       111.2764        73.1448
         5.5221       224.5200         0.0143        -1.4041        50.6340        36.3543        28.5281       124.2439       -66.1650        26.8125        28.2972
         5.5250       224.4100         0.0110        72.7183        74.0777         1.8651        49.5537        49.4597        27.9621        61.9919        46.4713
         5.5257       224.3800         0.0014         0.6443         4.6868        24.4424         9.9245        15.0239        11.3555         2.2267         9.5354
         5.5294       224.2300         0.0065         1.0351        -2.2792        -1.5429        -0.9290        58.1026       -61.7532         0.7215        -0.9764
         5.5333       224.0700         0.0008         2.3933        -0.5734         4.1683         1.9961         1.2305         0.6855         1.9013         1.2724
         5.5342       224.0300         0.1305       -78.0193      -169.4322         0.1105       -82.4470      -171.8411       -24.0641       -45.4720       -80.4591
         5.5352       223.9900         0.0157       -28.4141        -0.3653        -0.0150        -9.5981        30.0086        -9.5327       -46.3526        -8.6256
         5.5381       223.8800         0.0071        -0.6680        -0.7688      -110.6456       -37.3608       -99.8905       -14.7598        -0.5313       -38.3939
         5.5414       223.7400         0.0397        -0.1939        -0.0279      -234.7744       -78.3321      -191.0603       -52.1137        -1.4520       -81.5420
         5.5418       223.7200         0.0041        -0.0880        -5.1059        -9.6027        -4.9322        27.3271         0.1399       -42.3695        -4.9675
         5.5436       223.6500         0.0114         0.8595        -0.0053        81.7679        27.5407       107.4194       -23.0575         0.2175        28.1931
         5.5440       223.6400         0.0065         0.1161         1.1317        27.5747         9.6075        30.8633        -8.7282         4.8071         8.9808
         5.5453       223.5900         0.0193         2.0978        -6.0248         0.4625        -1.1548        -8.7694       -20.5467        25.3467        -1.3231
         5.5465       223.5400         0.0207        -2.4042         0.6838       -78.4457       -26.7220       -84.3242         5.9982        -2.6000       -26.9753
         5.5494       223.4200         0.0287         0.2834         2.5759      -113.4763       -36.8723      -136.0250        20.0404         2.7972       -37.7292
         5.5512       223.3500         0.0038         2.2150         0.2241       -64.0346       -20.5318       -68.2763         6.2232         0.7066       -20.4488
         5.5526       223.2900         0.0428       -66.8217        30.6345         0.9251       -11.7540         4.3596       -56.6718        20.4243       -10.6293
         5.5564       223.1400         0.0408      -182.1888       110.6451        -1.8091       -24.4509       155.6794       -85.2871      -125.7643       -18.4573
         5.5614       222.9400         0.0012        -2.1591         5.8662       -12.1709        -2.8213         3.6933        -9.2774        -0.6813        -2.0884
         5.5627       222.8900         0.0054         0.1826        88.5010        -0.3188        29.4549        86.2246        -6.3422         9.7627        29.8817
         5.5664       222.7400         0.0022        11.5566       -22.8610         9.8091        -0.4985       -10.6988        12.2005        -7.9145        -2.1376
         5.5670       222.7100         0.0006         1.9926       -11.1509         9.9281         0.2566        -3.7098         6.0219        -7.1722        -1.6201
         5.5685       222.6500         0.0001        -6.3724        -1.9016         0.0118        -2.7540        -1.9913        -3.1610        -6.0094        -3.7205
         5.5704       222.5700         0.0107         0.2120        -0.7474        82.9381        27.4676       108.6241       -19.9652         0.2499        29.6363
         5.5723       222.5000         0.0006        -0.1251        -0.8611        40.7426        13.2522        27.7947        12.3394        -0.5729        13.1871
         5.5759       222.3600         0.0502       100.1510       -18.7017       -21.2531        20.0654      -100.5768        10.3076       146.1737        18.6348
         5.5760       222.3500         0.0182        15.0095       -29.5306      -101.0959       -38.5390      -109.5584       -31.0743        20.4044       -40.0761
         5.5774       222.3000         0.0073        -5.8621        79.7055        -7.1675        22.2253        68.5991        -6.9550         6.9729        22.8723
         5.5824       222.1000         0.0024         0.1338         0.3227        -0.9418        -0.1618       -17.6848        16.9932         0.0889        -0.2009
         5.5876       221.8900         0.0012        -1.5359         0.0129       -10.0705        -3.8645       -10.1375         3.9168        -0.8930        -2.3713
         5.5887       221.8500         0.0717        15.2304         7.5187        -1.5203         7.0763         2.4479        43.1828       -29.9698         5.2203
         5.5888       221.8500         0.0107       -24.5114       -30.3484         0.4144       -18.1485       -18.7599       -15.7890       -13.6683       -16.0724
         5.5908       221.7600         0.0015         0.3626        -0.9201        17.1478         5.5301        41.2651       -20.9990        -0.2621         6.6680
         5.5944       221.6200         0.0008         1.3134        -0.4830        -0.3417         0.1629        10.7659       -10.2513        -0.0314         0.1611
         5.5965       221.5400         0.0040         0.5600         1.3060       -47.9937       -15.3759       -31.4782       -14.5889         0.0270       -15.3467
         5.5980       221.4800         0.0115        -4.0753       -10.0319        -0.3072        -4.8048         1.7453        19.7255       -36.0962        -4.8751
         5.6013       221.3500         0.0157        20.7364        -5.4856        -0.3825         4.9561       -28.0693         0.6142        39.2874         3.9441
         5.6031       221.2800         0.0028         3.9939        -1.1237        -1.5875         0.4276        -3.3016         2.0979         2.9332         0.5765
         5.6039       221.2500         0.0818         9.4851         2.8101       -42.0866        -9.9305       -73.0567        36.5975         4.5015       -10.6525
         5.6059       221.1700         0.0582       125.5125       -13.6981        -1.8421        36.6574       -32.4436        35.4686        93.6150        32.2133
         5.6104       220.9900         0.0084        24.2188         0.7404        39.3119        21.4237        29.8050        23.1788        10.1444        21.0427
         5.6119       220.9300         0.0128        48.3808         0.0995        20.9709        23.1504        11.6778        40.1339        14.0441        21.9519
         5.6146       220.8300         0.0321         6.2907        20.6719       -30.8756        -1.3043       -21.7543        -2.4564        18.8198        -1.7969
         5.6153       220.8000         0.0370         9.9056        27.8008       -21.6170         5.3631         0.4148         0.3561        12.9441         4.5717
         5.6197       220.6300         0.0002        -0.0992        -0.3011        -0.6320        -0.3441        -5.8778         0.8890        -0.4997        -1.8295
         5.6211       220.5700         0.0225        33.7322       -69.6190        -3.3666       -13.0845         9.6935        21.1185       -69.4763       -12.8881
         5.6226       220.5100         0.0104        13.5862       -12.0975       -39.3882       -12.6332       -39.5789        14.8476       -13.4476       -12.7263
         5.6260       220.3800         0.0128       -32.9210         5.7468         4.5446        -7.5432       -34.2571         1.5863        12.0557        -6.8717
         5.6272       220.3300         0.0016        -2.4898        -1.4965         6.9635         0.9924        -5.8208         4.7089         1.3466         0.0782
         5.6286       220.2700         0.0025        -0.0061        -0.3037         1.5853         0.4251       -17.5983        19.5858        -0.5226         0.4883
         5.6314       220.1600         0.0132       103.8824        13.4351         7.0821        41.4665       -29.8412        32.4720       124.6922        42.4410
         5.6328       220.1100         0.0122        46.4126         1.6053        15.5030        21.1736       -20.7462        21.3372        63.1930        21.2613
         5.6344       220.0500         0.0258       -15.1257       -58.5204         3.6603       -23.3286       -48.3250         6.3213       -25.0487       -22.3508
         5.6367       219.9600         0.0010        -0.1860        -0.8403        45.6461        14.8733        57.1296        -8.1328        -0.1473        16.2832
         5.6407       219.8000         0.0047        -4.8033         6.8165         6.1898         2.7343         9.0905        -8.6758         5.5897         2.0015
         5.6438       219.6800         0.0129         4.6352       -36.2567        -6.5281       -12.7165       -33.1089       -15.2787        16.3423       -10.6817
         5.6447       219.6500         0.0315         4.4175       -10.7295       -11.5480        -5.9533        42.5224       -60.8736         2.8854        -5.1553
         5.6482       219.5100         0.0319        -0.6861       111.1828         1.0081        37.1683       144.1564        -2.9743       -33.5893        35.8643
         5.6520       219.3600         0.0004        -0.0261        -3.0277         0.3368        -0.9057        -3.0250        -0.1622        -0.1043        -1.0971
         5.6531       219.3200         0.0222        -4.7955       -88.8510        -1.7067       -31.7844       -54.2417         5.8621       -52.3252       -33.5683
         5.6548       219.2600         0.0069         2.3210         0.9480       -30.5236        -9.0848       -43.5616        13.7001         1.0140        -9.6158
         5.6575       219.1500         0.0224        56.8004         1.4462        -3.3569        18.2965        -8.7494        -0.0684        58.4421        16.5414
         5.6578       219.1400         0.0029         8.1768        -4.0156        -4.5135        -0.1175        -7.5983         9.9592        -4.6095        -0.7495
         5.6585       219.1100         0.0105        11.7726       -32.5858       -23.5225       -14.7786      -122.7312        40.4510        35.6717       -15.5362
         5.6604       219.0400         0.0028        -0.5075         1.0882       -34.8244       -11.4145       -69.6001        36.9265        -0.2444       -10.9726
         5.6655       218.8400         0.0038        26.6719        14.2866        -1.1745        13.2613        -7.0731        18.9671        25.8277        12.5739
         5.6674       218.7700         0.0089       -13.0899       -43.1385        -0.7608       -18.9964       -16.4695       -14.7880       -21.1121       -17.4566
         5.6699       218.6700         0.0019        -0.6982         1.8619        47.6559        16.2732        19.2728        20.0762        -1.1191        12.7433
         5.6722       218.5800         0.0119         0.4904        31.1274         2.0799        11.2326        58.3940         4.0376       -26.6374        11.9314
         5.6729       218.5600         0.0110        -4.8890         3.5434         1.4094         0.0213        -1.0922        -1.1524         3.0307         0.2621
         5.6739       218.5200         0.0113       -49.3395         9.9065        -1.8355       -13.7562        39.0139       -23.0813       -49.0260       -11.0312
         5.6765       218.4200         0.0661        -0.2597         3.4994        47.0214        16.7537       -94.3234       141.7181         1.9906        16.4618
         5.6774       218.3800         0.0087        -5.6152        19.7258        -1.6576         4.1510        -7.1007         2.2373        18.2666         4.4677
         5.6780       218.3600         0.0095        -3.2449         8.2696        -2.2486         0.9254        -7.6856         3.4397         7.8840         1.2127
         5.6832       218.1600         0.0058        -0.0718        -0.0060        36.3925        12.1049        49.8230       -17.6324        -0.0486        10.7140
         5.6850       218.0900         0.0027         5.3570        -0.1190        13.8390         6.3590        -4.3297        10.6207         6.5482         4.2797
         5.6869       218.0200         0.0223        70.0757         3.4333        -2.5906        23.6395       -24.2974        28.6694        59.6190        21.3303
         5.6893       217.9300         0.0073        43.6615       -31.9605        -0.1974         3.8345       -51.8253        22.7768        23.7550        -1.7645
         5.6907       217.8700         0.0073        17.2028        75.2948         0.0889        30.8622        99.7688         0.7050       -14.9382        28.5119
         5.6920       217.8200         0.0019         2.1998        18.0065         5.3831         8.5298        18.7964         9.7886        -4.9538         7.8771
         5.6980       217.5900         0.0047         0.0088        -1.0473       -46.2823       -15.7736       -57.4966        15.0554        -0.9732       -14.4715
         5.6998       217.5200         0.0592       -60.9380        11.5313         0.1987       -16.4026         3.8540       -58.9238         6.9823       -16.0292
